id,itemTime,trialNumber,name,type,utterance,relevance,competence,prior,condition,trialType,answer,RT,language,comments,engagement,difficulty
A10H1H4FU0S098:39U1BHVTDMZ30B4URPI0PEXMW4DT3N,1450105188158,1,Brad's clothes,hlh,Brad is not happy about the fact that his friends make jokes about his shabby clothes.,1,0,1,test,test_true,0.92,45675,Enlgish,Thank you,9,2
A10H1H4FU0S098:39U1BHVTDMZ30B4URPI0PEXMW4DT3N,1450105205878,2,Brad's clothes,hlh,From what Gina said we may conclude that Brad did not buy pair of jeans as well.,1,0,1,critical,exh1,0.68,17716,Enlgish,Thank you,9,2
A10H1H4FU0S098:39U1BHVTDMZ30B4URPI0PEXMW4DT3N,1450105265347,3,Danny's racket,hhh,Danny and Alex went to the sports store together.,1,1,1,test,test_false,0.96,59467,Enlgish,Thank you,9,2
A10H1H4FU0S098:39U1BHVTDMZ30B4URPI0PEXMW4DT3N,1450105271540,4,Danny's racket,hhh,From what Alex's girlfriend said we may conclude that Alex did not buy a racket as well.,1,1,1,critical,exh2,0.07,6190,Enlgish,Thank you,9,2
A10H1H4FU0S098:39U1BHVTDMZ30B4URPI0PEXMW4DT3N,1450105309818,5,Tony's clubbing,lhl,Rob is a big fan of Techno music as well.,0,1,0,test,test_uncertain,0.9,38276,Enlgish,Thank you,9,2
A10H1H4FU0S098:39U1BHVTDMZ30B4URPI0PEXMW4DT3N,1450105319626,6,Tony's clubbing,lhl,From what Rob said we may conclude that they do not play Metal as well.,0,1,0,critical,exh1,0.89,9806,Enlgish,Thank you,9,2
A10H1H4FU0S098:39U1BHVTDMZ30B4URPI0PEXMW4DT3N,1450105352750,7,Gigi's exams,hlh,Gigi studied hard to pass her exams.,1,0,1,test,test_true,1,33121,Enlgish,Thank you,9,2
A10H1H4FU0S098:39U1BHVTDMZ30B4URPI0PEXMW4DT3N,1450105361720,8,Gigi's exams,hlh,From what Carrie said we may conclude that Gigi did not pass her Physics exam as well.,1,0,1,critical,exh2,0.05,8968,Enlgish,Thank you,9,2
A10H1H4FU0S098:39U1BHVTDMZ30B4URPI0PEXMW4DT3N,1450105401946,9,Leo's wife,hll,Leo is an avid golf player.,1,0,0,test,test_uncertain,0.98,40223,Enlgish,Thank you,9,2
A10H1H4FU0S098:39U1BHVTDMZ30B4URPI0PEXMW4DT3N,1450105431822,10,Leo's wife,hll,From what Hans said we may conclude that the player in question didn't make a hole-in-one on the first hole as well,1,0,0,critical,exh2,0.08,29873,Enlgish,Thank you,9,2
A10H1H4FU0S098:39U1BHVTDMZ30B4URPI0PEXMW4DT3N,1450105451011,11,Gerald's graduation,llh,Nico finally graduated after studying for a long time.,0,0,1,test,test_false,1,19186,Enlgish,Thank you,9,2
A10H1H4FU0S098:39U1BHVTDMZ30B4URPI0PEXMW4DT3N,1450105460890,12,Gerald's graduation,llh,From what Nico said we may conclude that Gerald's father did not attend the ceremony as well.,0,0,1,critical,exh1,0.82,9877,Enlgish,Thank you,9,2
A10ZXERA24IG75:3ZR9AIQJUCHN2YQ7T1Z9F8NNDTX40S,1450032250768,1,Gerald's graduation,llh,Gerald is friends with both Nico and Rick.,0,0,1,test,test_true,1,11786,English,NA,8,3
A10ZXERA24IG75:3ZR9AIQJUCHN2YQ7T1Z9F8NNDTX40S,1450032258161,2,Gerald's graduation,llh,From what Nico said we may conclude that Gerald's father did not attend the ceremony as well.,0,0,1,critical,exh1,0.64,7393,English,NA,8,3
A10ZXERA24IG75:3ZR9AIQJUCHN2YQ7T1Z9F8NNDTX40S,1450032279736,3,Leo's wife,hll,Leo is an avid golf player.,1,0,0,test,test_uncertain,0.86,21575,English,NA,8,3
A10ZXERA24IG75:3ZR9AIQJUCHN2YQ7T1Z9F8NNDTX40S,1450032288882,4,Leo's wife,hll,From what Hans said we may conclude that the player in question didn't make a hole-in-one on the second hole as well.,1,0,0,critical,exh1,0.58,9146,English,NA,8,3
A10ZXERA24IG75:3ZR9AIQJUCHN2YQ7T1Z9F8NNDTX40S,1450032303709,5,Joshua's delay,llh,"Kevin, Cory and Joshua are brothers.",0,0,1,test,test_false,0.18,14827,English,NA,8,3
A10ZXERA24IG75:3ZR9AIQJUCHN2YQ7T1Z9F8NNDTX40S,1450032314775,6,Joshua's delay,llh,From what Cory said we may conclude that Joshua did not have to eat lunch as well.,0,0,1,critical,exh2,0.36,11066,English,NA,8,3
A10ZXERA24IG75:3ZR9AIQJUCHN2YQ7T1Z9F8NNDTX40S,1450032328885,7,Harold's pet,lll,Harold's girlfriend gave in because Harold kept nagging her about wanting a pet.,0,0,0,test,test_uncertain,0.37,14110,English,NA,8,3
A10ZXERA24IG75:3ZR9AIQJUCHN2YQ7T1Z9F8NNDTX40S,1450032333484,8,Harold's pet,lll,From what Richard said we may conclude that Harold did not buy a dog as well.,0,0,0,critical,exh1,0.57,4599,English,NA,8,3
A10ZXERA24IG75:3ZR9AIQJUCHN2YQ7T1Z9F8NNDTX40S,1450032348419,9,Gigi's exams,hlh,Gigi hired a private tutor to help her with her Biology and Chemistry exams.,1,0,1,test,test_false,0.5,14930,English,NA,8,3
A10ZXERA24IG75:3ZR9AIQJUCHN2YQ7T1Z9F8NNDTX40S,1450032355544,10,Gigi's exams,hlh,From what Carrie said we may conclude that Gigi did not pass her Physics exam as well.,1,0,1,critical,exh2,0.3,7125,English,NA,8,3
A10ZXERA24IG75:3ZR9AIQJUCHN2YQ7T1Z9F8NNDTX40S,1450032369561,11,Pete's accident,hhl,Pete's mother was not there when he fell of the slide.,1,1,0,test,test_true,0.99,14012,English,NA,8,3
A10ZXERA24IG75:3ZR9AIQJUCHN2YQ7T1Z9F8NNDTX40S,1450032374548,12,Pete's accident,hhl,From what Pete's teacher said we may conclude that Pete did not break his arm as well.,1,1,0,critical,exh2,0.7,4982,English,NA,8,3
A110KENBXU7SUJ:3UJ1CZ6IZIX5ZQEJG813U6ZK8HR5S1,1450105870532,1,Mrs Sanders' son,hhl,Mrs Sanders had pasta for lunch yesterday.,1,1,0,test,test_uncertain,0.2,14740,English,NA,7,4
A110KENBXU7SUJ:3UJ1CZ6IZIX5ZQEJG813U6ZK8HR5S1,1450105887117,2,Mrs Sanders' son,hhl,From what Mrs Sanders said we may conclude that Ted did not have pasta as well.,1,1,0,critical,exh1,0.47,16584,English,NA,7,4
A110KENBXU7SUJ:3UJ1CZ6IZIX5ZQEJG813U6ZK8HR5S1,1450105904647,3,Danny's racket,hhh,Danny and Alex went to the sports store together.,1,1,1,test,test_false,0.05,17529,English,NA,7,4
A110KENBXU7SUJ:3UJ1CZ6IZIX5ZQEJG813U6ZK8HR5S1,1450105916223,4,Danny's racket,hhh,From what Alex's girlfriend said we may conclude that Alex did not buy a pair of shoes as well.,1,1,1,critical,exh1,0.42,11576,English,NA,7,4
A110KENBXU7SUJ:3UJ1CZ6IZIX5ZQEJG813U6ZK8HR5S1,1450105941885,5,Joshua's delay,llh,Kevin and Cory expected Joshua to arrive earlier.,0,0,1,test,test_true,0.57,25661,English,NA,7,4
A110KENBXU7SUJ:3UJ1CZ6IZIX5ZQEJG813U6ZK8HR5S1,1450105950829,6,Joshua's delay,llh,From what Cory said we may conclude that Joshua did not have to eat lunch as well.,0,0,1,critical,exh2,0.43,8943,English,NA,7,4
A110KENBXU7SUJ:3UJ1CZ6IZIX5ZQEJG813U6ZK8HR5S1,1450105965984,7,Gerald's graduation,llh,Nico finally graduated after studying for a long time.,0,0,1,test,test_false,0.9,15155,English,NA,7,4
A110KENBXU7SUJ:3UJ1CZ6IZIX5ZQEJG813U6ZK8HR5S1,1450105975879,8,Gerald's graduation,llh,From what Nico said we may conclude that Gerald's mother did not attend the ceremony as well.,0,0,1,critical,exh2,0.44,9895,English,NA,7,4
A110KENBXU7SUJ:3UJ1CZ6IZIX5ZQEJG813U6ZK8HR5S1,1450105988019,9,Mrs Gibbs' worry,hhh,Cindy is secretly in love with Mrs Gibbs' husband.,1,1,1,test,test_uncertain,0.27,12140,English,NA,7,4
A110KENBXU7SUJ:3UJ1CZ6IZIX5ZQEJG813U6ZK8HR5S1,1450106001200,10,Mrs Gibbs' worry,hhh,From what Cindy said we may conclude that Mr Gibbs did not have a steak as well.,1,1,1,critical,exh2,0.42,13180,English,NA,7,4
A110KENBXU7SUJ:3UJ1CZ6IZIX5ZQEJG813U6ZK8HR5S1,1450106015049,11,Leo's wife,hll,Leo is wealthy.,1,0,0,test,test_true,0.81,13849,English,NA,7,4
A110KENBXU7SUJ:3UJ1CZ6IZIX5ZQEJG813U6ZK8HR5S1,1450106023137,12,Leo's wife,hll,From what Hans said we may conclude that the player in question didn't make a hole-in-one on the second hole as well.,1,0,0,critical,exh1,0.46,8087,English,NA,7,4
A11THU6UGG3THR:3634BBTX0P28794CH8KYCGKAOD2FI1,1450103069210,1,Danny's racket,hhh,Alex needs to buy some equipment before he can play squash with Danny.,1,1,1,test,test_true,1,29253,English,I think I misinterpreted the first question.,7,4
A11THU6UGG3THR:3634BBTX0P28794CH8KYCGKAOD2FI1,1450103082848,2,Danny's racket,hhh,From what Alex's girlfriend said we may conclude that Alex did not buy a pair of shoes as well.,1,1,1,critical,exh1,0.59,13636,English,I think I misinterpreted the first question.,7,4
A11THU6UGG3THR:3634BBTX0P28794CH8KYCGKAOD2FI1,1450103117655,3,Gigi's exams,hlh,Gigi hired a private tutor to help her with her Biology and Chemistry exams.,1,0,1,test,test_false,0.25,34805,English,I think I misinterpreted the first question.,7,4
A11THU6UGG3THR:3634BBTX0P28794CH8KYCGKAOD2FI1,1450103124454,4,Gigi's exams,hlh,From what Carrie said we may conclude that Gigi did not pass her Chemistry exam as well.,1,0,1,critical,exh1,0.32,6797,English,I think I misinterpreted the first question.,7,4
A11THU6UGG3THR:3634BBTX0P28794CH8KYCGKAOD2FI1,1450103153288,5,Gerald's graduation,llh,Gerald is friends with both Nico and Rick.,0,0,1,test,test_true,0.7,28831,English,I think I misinterpreted the first question.,7,4
A11THU6UGG3THR:3634BBTX0P28794CH8KYCGKAOD2FI1,1450103164589,6,Gerald's graduation,llh,From what Nico said we may conclude that Gerald's father did not attend the ceremony as well.,0,0,1,critical,exh1,0.3,11299,English,I think I misinterpreted the first question.,7,4
A11THU6UGG3THR:3634BBTX0P28794CH8KYCGKAOD2FI1,1450103184838,7,Lily's husband,lhl,Eric has a problem with his liver for which he has to stop drinking alcohol.,0,1,0,test,test_uncertain,0.55,20246,English,I think I misinterpreted the first question.,7,4
A11THU6UGG3THR:3634BBTX0P28794CH8KYCGKAOD2FI1,1450103195347,8,Lily's husband,lhl,From what Bill said we may conclude that Eric did not drink whisky as well.,0,1,0,critical,exh2,0.59,10506,English,I think I misinterpreted the first question.,7,4
A11THU6UGG3THR:3634BBTX0P28794CH8KYCGKAOD2FI1,1450103205422,9,Pete's accident,hhl,Pete was injured while playing in the garden.,1,1,0,test,test_false,0,10072,English,I think I misinterpreted the first question.,7,4
A11THU6UGG3THR:3634BBTX0P28794CH8KYCGKAOD2FI1,1450103214645,10,Pete's accident,hhl,From what Pete's teacher said we may conclude that Pete did not break his arm as well.,1,1,0,critical,exh2,0.68,9219,English,I think I misinterpreted the first question.,7,4
A11THU6UGG3THR:3634BBTX0P28794CH8KYCGKAOD2FI1,1450103241108,11,Mrs Sanders' son,hhl,Mrs Sanders had pasta for lunch yesterday.,1,1,0,test,test_uncertain,0.34,26459,English,I think I misinterpreted the first question.,7,4
A11THU6UGG3THR:3634BBTX0P28794CH8KYCGKAOD2FI1,1450103248907,12,Mrs Sanders' son,hhl,From what Mrs Sanders said we may conclude that Ted did not have pizza as well.,1,1,0,critical,exh2,1,7795,English,I think I misinterpreted the first question.,7,4
A12HZGOZQD5YK7:31IBVUNM9T7DTFOCGFJHR5A4WFYFVY,1450103268756,1,Harold's pet,lll,Harold's girlfriend gave in because Harold kept nagging her about wanting a pet.,0,0,0,test,test_uncertain,0.73,20293,English,No.,8,3
A12HZGOZQD5YK7:31IBVUNM9T7DTFOCGFJHR5A4WFYFVY,1450103282339,2,Harold's pet,lll,From what Richard said we may conclude that Harold did not buy a cat as well.,0,0,0,critical,exh2,0.73,13576,English,No.,8,3
A12HZGOZQD5YK7:31IBVUNM9T7DTFOCGFJHR5A4WFYFVY,1450103328236,3,Jimmy's trip,lll,Jimmy had to rush to be back home and did not have much time to spend in the city.,0,0,0,test,test_true,0.99,45897,English,No.,8,3
A12HZGOZQD5YK7:31IBVUNM9T7DTFOCGFJHR5A4WFYFVY,1450103343560,4,Jimmy's trip,lll,From what the brother said we may conclude that Jimmy did not visit the Empire State Building as well.,0,0,0,critical,exh1,0.24,15323,English,No.,8,3
A12HZGOZQD5YK7:31IBVUNM9T7DTFOCGFJHR5A4WFYFVY,1450103363869,5,Leo's wife,hll,Leo is wealthy.,1,0,0,test,test_true,0.98,20309,English,No.,8,3
A12HZGOZQD5YK7:31IBVUNM9T7DTFOCGFJHR5A4WFYFVY,1450103374535,6,Leo's wife,hll,From what Hans said we may conclude that the player in question didn't make a hole-in-one on the first hole as well,1,0,0,critical,exh2,0.18,10665,English,No.,8,3
A12HZGOZQD5YK7:31IBVUNM9T7DTFOCGFJHR5A4WFYFVY,1450103390244,7,Gerald's graduation,llh,Nico finally graduated after studying for a long time.,0,0,1,test,test_false,0.95,15708,English,No.,8,3
A12HZGOZQD5YK7:31IBVUNM9T7DTFOCGFJHR5A4WFYFVY,1450103398876,8,Gerald's graduation,llh,From what Nico said we may conclude that Gerald's mother did not attend the ceremony as well.,0,0,1,critical,exh2,0.21,8631,English,No.,8,3
A12HZGOZQD5YK7:31IBVUNM9T7DTFOCGFJHR5A4WFYFVY,1450103414364,9,Chloe's holiday,lhh,"Chloe forgot about bringing some beach towels, too.",0,1,1,test,test_uncertain,0.2,15487,English,No.,8,3
A12HZGOZQD5YK7:31IBVUNM9T7DTFOCGFJHR5A4WFYFVY,1450103427387,10,Chloe's holiday,lhh,From what Chloe said we may conclude that Amelia did not bring some extra suntan lotion as well.,0,1,1,critical,exh1,0.16,13021,English,No.,8,3
A12HZGOZQD5YK7:31IBVUNM9T7DTFOCGFJHR5A4WFYFVY,1450103454964,11,Joshua's delay,llh,"Kevin, Cory and Joshua are brothers.",0,0,1,test,test_false,0.01,27576,English,No.,8,3
A12HZGOZQD5YK7:31IBVUNM9T7DTFOCGFJHR5A4WFYFVY,1450103463269,12,Joshua's delay,llh,From what Cory said we may conclude that Joshua did not have to do his homework as well.,0,0,1,critical,exh1,0.25,8303,English,No.,8,3
A138BU1VWM2RKN:3NG53N1RLWRR9GHTMP4CBL40NN48P9,1450033849431,1,Leo's wife,hll,Leo is wealthy.,1,0,0,test,test_true,0.74,15105,English,NA,4,2
A138BU1VWM2RKN:3NG53N1RLWRR9GHTMP4CBL40NN48P9,1450033863037,2,Leo's wife,hll,From what Hans said we may conclude that the player in question didn't make a hole-in-one on the first hole as well,1,0,0,critical,exh2,0.75,13604,English,NA,4,2
A138BU1VWM2RKN:3NG53N1RLWRR9GHTMP4CBL40NN48P9,1450033882456,3,Brad's clothes,hlh,Brad is not happy about the fact that his friends make jokes about his shabby clothes.,1,0,1,test,test_true,1,19417,English,NA,4,2
A138BU1VWM2RKN:3NG53N1RLWRR9GHTMP4CBL40NN48P9,1450033889733,4,Brad's clothes,hlh,From what Gina said we may conclude that Brad did not buy pair of jeans as well.,1,0,1,critical,exh1,0.4,7275,English,NA,4,2
A138BU1VWM2RKN:3NG53N1RLWRR9GHTMP4CBL40NN48P9,1450033917349,5,Danny's racket,hhh,Danny and Alex went to the sports store together.,1,1,1,test,test_false,0.3,27615,English,NA,4,2
A138BU1VWM2RKN:3NG53N1RLWRR9GHTMP4CBL40NN48P9,1450033922293,6,Danny's racket,hhh,From what Alex's girlfriend said we may conclude that Alex did not buy a pair of shoes as well.,1,1,1,critical,exh1,0.66,4942,English,NA,4,2
A138BU1VWM2RKN:3NG53N1RLWRR9GHTMP4CBL40NN48P9,1450033941404,7,Harold's pet,lll,Harold is single.,0,0,0,test,test_false,0,19110,English,NA,4,2
A138BU1VWM2RKN:3NG53N1RLWRR9GHTMP4CBL40NN48P9,1450033949970,8,Harold's pet,lll,From what Richard said we may conclude that Harold did not buy a dog as well.,0,0,0,critical,exh1,0.79,8565,English,NA,4,2
A138BU1VWM2RKN:3NG53N1RLWRR9GHTMP4CBL40NN48P9,1450033969577,9,Joshua's delay,llh,"Kevin, Cory and Joshua do not like to hang out with girls.",0,0,1,test,test_uncertain,0.5,19606,English,NA,4,2
A138BU1VWM2RKN:3NG53N1RLWRR9GHTMP4CBL40NN48P9,1450033982241,10,Joshua's delay,llh,From what Cory said we may conclude that Joshua did not have to eat lunch as well.,0,0,1,critical,exh2,0.5,12662,English,NA,4,2
A138BU1VWM2RKN:3NG53N1RLWRR9GHTMP4CBL40NN48P9,1450033994745,11,Mrs Gibbs' worry,hhh,Cindy is secretly in love with Mrs Gibbs' husband.,1,1,1,test,test_uncertain,0.05,12501,English,NA,4,2
A138BU1VWM2RKN:3NG53N1RLWRR9GHTMP4CBL40NN48P9,1450034002324,12,Mrs Gibbs' worry,hhh,From what Cindy said we may conclude that Mr Gibbs did not have a steak as well.,1,1,1,critical,exh2,0.61,7578,English,NA,4,2
A14VY6QXKBLC0D:39KFRKBFIO3O3MWAKTPRLYNC6XBOYM,1450032206091,1,Joshua's delay,llh,"Kevin, Cory and Joshua are brothers.",0,0,1,test,test_false,0,19154,English,none,3,5
A14VY6QXKBLC0D:39KFRKBFIO3O3MWAKTPRLYNC6XBOYM,1450032245327,2,Joshua's delay,llh,From what Cory said we may conclude that Joshua did not have to do his homework as well.,0,0,1,critical,exh1,0.14,39235,English,none,3,5
A14VY6QXKBLC0D:39KFRKBFIO3O3MWAKTPRLYNC6XBOYM,1450032262041,3,Pete's accident,hhl,Pete's mother was not there when he fell of the slide.,1,1,0,test,test_true,0.93,16714,English,none,3,5
A14VY6QXKBLC0D:39KFRKBFIO3O3MWAKTPRLYNC6XBOYM,1450032271807,4,Pete's accident,hhl,From what Pete's teacher said we may conclude that Pete did not break his leg as well.,1,1,0,critical,exh1,0.73,9765,English,none,3,5
A14VY6QXKBLC0D:39KFRKBFIO3O3MWAKTPRLYNC6XBOYM,1450032314286,5,Danny's racket,hhh,Danny and Alex went to the sports store together.,1,1,1,test,test_false,0.42,42478,English,none,3,5
A14VY6QXKBLC0D:39KFRKBFIO3O3MWAKTPRLYNC6XBOYM,1450032323639,6,Danny's racket,hhh,From what Alex's girlfriend said we may conclude that Alex did not buy a pair of shoes as well.,1,1,1,critical,exh1,0.54,9353,English,none,3,5
A14VY6QXKBLC0D:39KFRKBFIO3O3MWAKTPRLYNC6XBOYM,1450032340259,7,Chloe's holiday,lhh,"Chloe forgot about bringing some beach towels, too.",0,1,1,test,test_uncertain,0.23,16619,English,none,3,5
A14VY6QXKBLC0D:39KFRKBFIO3O3MWAKTPRLYNC6XBOYM,1450032354850,8,Chloe's holiday,lhh,From what Chloe said we may conclude that Susan did not bring some extra suntan lotion as well.,0,1,1,critical,exh2,0.5,14590,English,none,3,5
A14VY6QXKBLC0D:39KFRKBFIO3O3MWAKTPRLYNC6XBOYM,1450032381975,9,Harold's pet,lll,Harold's girlfriend didn't want a pet in her house before.,0,0,0,test,test_true,0.92,27125,English,none,3,5
A14VY6QXKBLC0D:39KFRKBFIO3O3MWAKTPRLYNC6XBOYM,1450032390942,10,Harold's pet,lll,From what Richard said we may conclude that Harold did not buy a cat as well.,0,0,0,critical,exh2,0.87,8967,English,none,3,5
A14VY6QXKBLC0D:39KFRKBFIO3O3MWAKTPRLYNC6XBOYM,1450032409911,11,Tony's clubbing,lhl,Rob is a big fan of Techno music as well.,0,1,0,test,test_uncertain,0.5,18969,English,none,3,5
A14VY6QXKBLC0D:39KFRKBFIO3O3MWAKTPRLYNC6XBOYM,1450032418016,12,Tony's clubbing,lhl,From what Rob said we may conclude that they do not play Jazz as well.,0,1,0,critical,exh2,0.85,8104,English,none,3,5
A160HFSRDNT91E:3X66WABAJXQZV6IO7PJTQVIX6A63GP,1450102950897,1,Lily's husband,lhl,Eric's doctor told him to stop drinking alcohol.,0,1,0,test,test_true,0.92,9640,english,no,7,3
A160HFSRDNT91E:3X66WABAJXQZV6IO7PJTQVIX6A63GP,1450102960823,2,Lily's husband,lhl,From what Bill said we may conclude that Eric did not drink vodka as well.,0,1,0,critical,exh1,0.62,9921,english,no,7,3
A160HFSRDNT91E:3X66WABAJXQZV6IO7PJTQVIX6A63GP,1450102970687,3,Chloe's holiday,lhh,"Chloe forgot about bringing some beach towels, too.",0,1,1,test,test_uncertain,0.22,9863,english,no,7,3
A160HFSRDNT91E:3X66WABAJXQZV6IO7PJTQVIX6A63GP,1450102978766,4,Chloe's holiday,lhh,From what Chloe said we may conclude that Amelia did not bring some extra suntan lotion as well.,0,1,1,critical,exh1,0.56,8078,english,no,7,3
A160HFSRDNT91E:3X66WABAJXQZV6IO7PJTQVIX6A63GP,1450102998527,5,Danny's racket,hhh,Danny and Alex went to the sports store together.,1,1,1,test,test_false,0.08,19758,english,no,7,3
A160HFSRDNT91E:3X66WABAJXQZV6IO7PJTQVIX6A63GP,1450103051925,6,Danny's racket,hhh,From what Alex's girlfriend said we may conclude that Alex did not buy a pair of shoes as well.,1,1,1,critical,exh1,0.29,53391,english,no,7,3
A160HFSRDNT91E:3X66WABAJXQZV6IO7PJTQVIX6A63GP,1450103059918,7,Gerald's graduation,llh,Gerald took almost ten years to graduate.,0,0,1,test,test_uncertain,0.22,7984,english,no,7,3
A160HFSRDNT91E:3X66WABAJXQZV6IO7PJTQVIX6A63GP,1450103064525,8,Gerald's graduation,llh,From what Nico said we may conclude that Gerald's mother did not attend the ceremony as well.,0,0,1,critical,exh2,0.11,4605,english,no,7,3
A160HFSRDNT91E:3X66WABAJXQZV6IO7PJTQVIX6A63GP,1450103080453,9,Tony's clubbing,lhl,Techno is quite different from Jazz and from Metal.,0,1,0,test,test_true,0.3,15925,english,no,7,3
A160HFSRDNT91E:3X66WABAJXQZV6IO7PJTQVIX6A63GP,1450103087499,10,Tony's clubbing,lhl,From what Rob said we may conclude that they do not play Jazz as well.,0,1,0,critical,exh2,0.35,7043,english,no,7,3
A160HFSRDNT91E:3X66WABAJXQZV6IO7PJTQVIX6A63GP,1450103100125,11,Mrs Sanders' son,hhl,Ted is Mrs Sanders' husband.,1,1,0,test,test_false,0.04,12624,english,no,7,3
A160HFSRDNT91E:3X66WABAJXQZV6IO7PJTQVIX6A63GP,1450103107772,12,Mrs Sanders' son,hhl,From what Mrs Sanders said we may conclude that Ted did not have pizza as well.,1,1,0,critical,exh2,0.31,7646,english,no,7,3
A16EFXBMX60OR0:32UTUBMZ7H4NGYCWBDXL8FJJHHRBVX,1450032440933,1,Mrs Sanders' son,hhl,Mrs Sanders had pasta for lunch yesterday.,1,1,0,test,test_uncertain,0.5,49703,English,NA,7,7
A16EFXBMX60OR0:32UTUBMZ7H4NGYCWBDXL8FJJHHRBVX,1450032462322,2,Mrs Sanders' son,hhl,From what Mrs Sanders said we may conclude that Ted did not have pasta as well.,1,1,0,critical,exh1,0.62,21387,English,NA,7,7
A16EFXBMX60OR0:32UTUBMZ7H4NGYCWBDXL8FJJHHRBVX,1450032505261,3,Tony's clubbing,lhl,Techno is quite different from Jazz and from Metal.,0,1,0,test,test_true,0.67,42938,English,NA,7,7
A16EFXBMX60OR0:32UTUBMZ7H4NGYCWBDXL8FJJHHRBVX,1450032511804,4,Tony's clubbing,lhl,From what Rob said we may conclude that they do not play Jazz as well.,0,1,0,critical,exh2,0.28,6541,English,NA,7,7
A16EFXBMX60OR0:32UTUBMZ7H4NGYCWBDXL8FJJHHRBVX,1450032568336,5,Gerald's graduation,llh,Nico finally graduated after studying for a long time.,0,0,1,test,test_false,0.5,56531,English,NA,7,7
A16EFXBMX60OR0:32UTUBMZ7H4NGYCWBDXL8FJJHHRBVX,1450032575822,6,Gerald's graduation,llh,From what Nico said we may conclude that Gerald's mother did not attend the ceremony as well.,0,0,1,critical,exh2,0.33,7485,English,NA,7,7
A16EFXBMX60OR0:32UTUBMZ7H4NGYCWBDXL8FJJHHRBVX,1450032628448,7,Jimmy's trip,lll,Jimmy had told his friends about his plans to visit New York City before.,0,0,0,test,test_uncertain,0.5,52625,English,NA,7,7
A16EFXBMX60OR0:32UTUBMZ7H4NGYCWBDXL8FJJHHRBVX,1450032633969,8,Jimmy's trip,lll,From what the brother said we may conclude that Jimmy did not visit the Empire State Building as well.,0,0,0,critical,exh1,0.36,5519,English,NA,7,7
A16EFXBMX60OR0:32UTUBMZ7H4NGYCWBDXL8FJJHHRBVX,1450032704248,9,Carl's party,hll,John did not spend much time outside.,1,0,0,test,test_true,0.71,70277,English,NA,7,7
A16EFXBMX60OR0:32UTUBMZ7H4NGYCWBDXL8FJJHHRBVX,1450032715283,10,Carl's party,hll,From what John said we may conclude that Carl did not dance passionately with Mary as well.,1,0,0,critical,exh1,0.59,11033,English,NA,7,7
A16EFXBMX60OR0:32UTUBMZ7H4NGYCWBDXL8FJJHHRBVX,1450032739876,11,Joshua's delay,llh,"Kevin, Cory and Joshua are brothers.",0,0,1,test,test_false,0.22,24592,English,NA,7,7
A16EFXBMX60OR0:32UTUBMZ7H4NGYCWBDXL8FJJHHRBVX,1450032753582,12,Joshua's delay,llh,From what Cory said we may conclude that Joshua did not have to eat lunch as well.,0,0,1,critical,exh2,0.12,13705,English,NA,7,7
A16UAN46CNIRHY:32SVAV9L3GHYLF5LLPRJU97U8FT3AD,1450103895145,1,Mrs Sanders' son,hhl,The teacher is trying to find out who queued up twice.,1,1,0,test,test_true,0.23,50575,English,No,10,0
A16UAN46CNIRHY:32SVAV9L3GHYLF5LLPRJU97U8FT3AD,1450103913275,2,Mrs Sanders' son,hhl,From what Mrs Sanders said we may conclude that Ted did not have pasta as well.,1,1,0,critical,exh1,0.67,18118,English,No,10,0
A16UAN46CNIRHY:32SVAV9L3GHYLF5LLPRJU97U8FT3AD,1450103973992,3,Carl's party,hll,"John and Carl, the hosts, are a gay couple.",1,0,0,test,test_false,0,60714,English,No,10,0
A16UAN46CNIRHY:32SVAV9L3GHYLF5LLPRJU97U8FT3AD,1450103997890,4,Carl's party,hll,From what John said we may conclude that Carl did not dance passionately with Mary as well.,1,0,0,critical,exh1,0.57,23895,English,No,10,0
A16UAN46CNIRHY:32SVAV9L3GHYLF5LLPRJU97U8FT3AD,1450104019364,5,Tony's clubbing,lhl,Techno is quite different from Jazz and from Metal.,0,1,0,test,test_true,1,21473,English,No,10,0
A16UAN46CNIRHY:32SVAV9L3GHYLF5LLPRJU97U8FT3AD,1450104030145,6,Tony's clubbing,lhl,From what Rob said we may conclude that they do not play Metal as well.,0,1,0,critical,exh1,0.96,10780,English,No,10,0
A16UAN46CNIRHY:32SVAV9L3GHYLF5LLPRJU97U8FT3AD,1450104055719,7,Harold's pet,lll,Harold is single.,0,0,0,test,test_false,0,25572,English,No,10,0
A16UAN46CNIRHY:32SVAV9L3GHYLF5LLPRJU97U8FT3AD,1450104064263,8,Harold's pet,lll,From what Richard said we may conclude that Harold did not buy a cat as well.,0,0,0,critical,exh2,0.99,8541,English,No,10,0
A16UAN46CNIRHY:32SVAV9L3GHYLF5LLPRJU97U8FT3AD,1450104086108,9,Gigi's exams,hlh,Gigi aspires to a career in science.,1,0,1,test,test_uncertain,0.71,21844,English,No,10,0
A16UAN46CNIRHY:32SVAV9L3GHYLF5LLPRJU97U8FT3AD,1450104097350,10,Gigi's exams,hlh,From what Carrie said we may conclude that Gigi did not pass her Physics exam as well.,1,0,1,critical,exh2,0.1,11242,English,No,10,0
A16UAN46CNIRHY:32SVAV9L3GHYLF5LLPRJU97U8FT3AD,1450104138180,11,Jimmy's trip,lll,Jimmy had told his friends about his plans to visit New York City before.,0,0,0,test,test_uncertain,0.14,40829,English,No,10,0
A16UAN46CNIRHY:32SVAV9L3GHYLF5LLPRJU97U8FT3AD,1450104152583,12,Jimmy's trip,lll,From what the brother said we may conclude that Jimmy did not visit the Statue of Liberty as well.,0,0,0,critical,exh2,0.05,14401,English,No,10,0
A18LPAFMK1B06K:3VSOLARPKCHKGWVGTJDJYEWA2XB39Y,1450103259934,1,Mrs Sanders' son,hhl,Mrs Sanders had pasta for lunch yesterday.,1,1,0,test,test_uncertain,0.5,29635,english,NA,5,5
A18LPAFMK1B06K:3VSOLARPKCHKGWVGTJDJYEWA2XB39Y,1450103274301,2,Mrs Sanders' son,hhl,From what Mrs Sanders said we may conclude that Ted did not have pasta as well.,1,1,0,critical,exh1,1,14365,english,NA,5,5
A18LPAFMK1B06K:3VSOLARPKCHKGWVGTJDJYEWA2XB39Y,1450103287151,3,Chloe's holiday,lhh,"Chloe forgot about bringing some beach towels, too.",0,1,1,test,test_uncertain,0.5,12849,english,NA,5,5
A18LPAFMK1B06K:3VSOLARPKCHKGWVGTJDJYEWA2XB39Y,1450103291354,4,Chloe's holiday,lhh,From what Chloe said we may conclude that Amelia did not bring some extra suntan lotion as well.,0,1,1,critical,exh1,0,4202,english,NA,5,5
A18LPAFMK1B06K:3VSOLARPKCHKGWVGTJDJYEWA2XB39Y,1450103305044,5,Lily's husband,lhl,Eric and Lily went to a bar together last night.,0,1,0,test,test_false,0,13689,english,NA,5,5
A18LPAFMK1B06K:3VSOLARPKCHKGWVGTJDJYEWA2XB39Y,1450103313132,6,Lily's husband,lhl,From what Bill said we may conclude that Eric did not drink vodka as well.,0,1,0,critical,exh1,0.26,8086,english,NA,5,5
A18LPAFMK1B06K:3VSOLARPKCHKGWVGTJDJYEWA2XB39Y,1450103327850,7,Mrs Gibbs' worry,hhh,Mrs Gibbs is worried about Cindy's health.,1,1,1,test,test_false,0.34,14717,english,NA,5,5
A18LPAFMK1B06K:3VSOLARPKCHKGWVGTJDJYEWA2XB39Y,1450103333901,8,Mrs Gibbs' worry,hhh,From what Cindy said we may conclude that Mr Gibbs did not have a steak as well.,1,1,1,critical,exh2,0.25,6050,english,NA,5,5
A18LPAFMK1B06K:3VSOLARPKCHKGWVGTJDJYEWA2XB39Y,1450103350028,9,Tony's clubbing,lhl,Techno is quite different from Jazz and from Metal.,0,1,0,test,test_true,0.99,16126,english,NA,5,5
A18LPAFMK1B06K:3VSOLARPKCHKGWVGTJDJYEWA2XB39Y,1450103358074,10,Tony's clubbing,lhl,From what Rob said we may conclude that they do not play Jazz as well.,0,1,0,critical,exh2,0.69,8045,english,NA,5,5
A18LPAFMK1B06K:3VSOLARPKCHKGWVGTJDJYEWA2XB39Y,1450103366821,11,Pete's accident,hhl,Pete's mother was not there when he fell of the slide.,1,1,0,test,test_true,1,8746,english,NA,5,5
A18LPAFMK1B06K:3VSOLARPKCHKGWVGTJDJYEWA2XB39Y,1450103371991,12,Pete's accident,hhl,From what Pete's teacher said we may conclude that Pete did not break his arm as well.,1,1,0,critical,exh2,0.65,5168,english,NA,5,5
A1APYLD4DUK33J:32EYX73OY1HAJQ4L2K96C8M4LWKUR3,1450032395964,1,Harold's pet,lll,Harold's girlfriend gave in because Harold kept nagging her about wanting a pet.,0,0,0,test,test_uncertain,0.71,59424,English,NA,6,7
A1APYLD4DUK33J:32EYX73OY1HAJQ4L2K96C8M4LWKUR3,1450032402241,2,Harold's pet,lll,From what Richard said we may conclude that Harold did not buy a cat as well.,0,0,0,critical,exh2,0.79,6272,English,NA,6,7
A1APYLD4DUK33J:32EYX73OY1HAJQ4L2K96C8M4LWKUR3,1450032429005,3,Mrs Gibbs' worry,hhh,Mrs Gibbs did not accompany her husband when Cindy served him.,1,1,1,test,test_true,0.86,26761,English,NA,6,7
A1APYLD4DUK33J:32EYX73OY1HAJQ4L2K96C8M4LWKUR3,1450032433681,4,Mrs Gibbs' worry,hhh,From what Cindy said we may conclude that Mr Gibbs did not have a beer as well.,1,1,1,critical,exh1,0.14,4672,English,NA,6,7
A1APYLD4DUK33J:32EYX73OY1HAJQ4L2K96C8M4LWKUR3,1450032453043,5,Mrs Sanders' son,hhl,The teacher is trying to find out who queued up twice.,1,1,0,test,test_true,0.8,19359,English,NA,6,7
A1APYLD4DUK33J:32EYX73OY1HAJQ4L2K96C8M4LWKUR3,1450032458275,6,Mrs Sanders' son,hhl,From what Mrs Sanders said we may conclude that Ted did not have pasta as well.,1,1,0,critical,exh1,0.88,5229,English,NA,6,7
A1APYLD4DUK33J:32EYX73OY1HAJQ4L2K96C8M4LWKUR3,1450032474417,7,Gerald's graduation,llh,Gerald took almost ten years to graduate.,0,0,1,test,test_uncertain,0.21,16139,English,NA,6,7
A1APYLD4DUK33J:32EYX73OY1HAJQ4L2K96C8M4LWKUR3,1450032485728,8,Gerald's graduation,llh,From what Nico said we may conclude that Gerald's mother did not attend the ceremony as well.,0,0,1,critical,exh2,0.3,11308,English,NA,6,7
A1APYLD4DUK33J:32EYX73OY1HAJQ4L2K96C8M4LWKUR3,1450032588859,9,Lily's husband,lhl,Eric and Lily went to a bar together last night.,0,1,0,test,test_false,0.02,103127,English,NA,6,7
A1APYLD4DUK33J:32EYX73OY1HAJQ4L2K96C8M4LWKUR3,1450032596851,10,Lily's husband,lhl,From what Bill said we may conclude that Eric did not drink vodka as well.,0,1,0,critical,exh1,0.11,7987,English,NA,6,7
A1APYLD4DUK33J:32EYX73OY1HAJQ4L2K96C8M4LWKUR3,1450032609076,11,Brad's clothes,hlh,Gina and Mandy accompanied Brad on his shopping trip.,1,0,1,test,test_false,0.13,12220,English,NA,6,7
A1APYLD4DUK33J:32EYX73OY1HAJQ4L2K96C8M4LWKUR3,1450032612310,12,Brad's clothes,hlh,From what Gina said we may conclude that Brad did not buy a sweater as well.,1,0,1,critical,exh2,0.09,3230,English,NA,6,7
A1CE2XPYCDRHVZ:3RANCT1ZVGPN3JNW6NNGCTH03AIBU8,1450035129373,1,Danny's racket,hhh,Danny and Alex have known each other since high school.,1,1,1,test,test_uncertain,0.35,11006,English,NA,9,4
A1CE2XPYCDRHVZ:3RANCT1ZVGPN3JNW6NNGCTH03AIBU8,1450035136002,2,Danny's racket,hhh,From what Alex's girlfriend said we may conclude that Alex did not buy a racket as well.,1,1,1,critical,exh2,0.97,6629,English,NA,9,4
A1CE2XPYCDRHVZ:3RANCT1ZVGPN3JNW6NNGCTH03AIBU8,1450035143660,3,Lily's husband,lhl,Eric has a problem with his liver for which he has to stop drinking alcohol.,0,1,0,test,test_uncertain,0.74,7658,English,NA,9,4
A1CE2XPYCDRHVZ:3RANCT1ZVGPN3JNW6NNGCTH03AIBU8,1450035148291,4,Lily's husband,lhl,From what Bill said we may conclude that Eric did not drink whisky as well.,0,1,0,critical,exh2,0.8,4631,English,NA,9,4
A1CE2XPYCDRHVZ:3RANCT1ZVGPN3JNW6NNGCTH03AIBU8,1450035154581,5,Chloe's holiday,lhh,Chloe recently got back from holidays.,0,1,1,test,test_true,1,6290,English,NA,9,4
A1CE2XPYCDRHVZ:3RANCT1ZVGPN3JNW6NNGCTH03AIBU8,1450035159945,6,Chloe's holiday,lhh,From what Chloe said we may conclude that Amelia did not bring some extra suntan lotion as well.,0,1,1,critical,exh1,0.73,5363,English,NA,9,4
A1CE2XPYCDRHVZ:3RANCT1ZVGPN3JNW6NNGCTH03AIBU8,1450035177549,7,Brad's clothes,hlh,Gina and Mandy accompanied Brad on his shopping trip.,1,0,1,test,test_false,0.19,17604,English,NA,9,4
A1CE2XPYCDRHVZ:3RANCT1ZVGPN3JNW6NNGCTH03AIBU8,1450035182726,8,Brad's clothes,hlh,From what Gina said we may conclude that Brad did not buy pair of jeans as well.,1,0,1,critical,exh1,0.55,5177,English,NA,9,4
A1CE2XPYCDRHVZ:3RANCT1ZVGPN3JNW6NNGCTH03AIBU8,1450035191655,9,Joshua's delay,llh,"Kevin, Cory and Joshua are brothers.",0,0,1,test,test_false,0,8925,English,NA,9,4
A1CE2XPYCDRHVZ:3RANCT1ZVGPN3JNW6NNGCTH03AIBU8,1450035196336,10,Joshua's delay,llh,From what Cory said we may conclude that Joshua did not have to eat lunch as well.,0,0,1,critical,exh2,0.19,4681,English,NA,9,4
A1CE2XPYCDRHVZ:3RANCT1ZVGPN3JNW6NNGCTH03AIBU8,1450035209028,11,Jimmy's trip,lll,Jimmy had to rush to be back home and did not have much time to spend in the city.,0,0,0,test,test_true,1,12688,English,NA,9,4
A1CE2XPYCDRHVZ:3RANCT1ZVGPN3JNW6NNGCTH03AIBU8,1450035214334,12,Jimmy's trip,lll,From what the brother said we may conclude that Jimmy did not visit the Empire State Building as well.,0,0,0,critical,exh1,0.98,5301,English,NA,9,4
A1FH850HU7SUB4:3PMBY0YE28B8TWRZMCOKRH048A89CM,1450032272734,1,Jimmy's trip,lll,Jimmy had to rush to be back home and did not have much time to spend in the city.,0,0,0,test,test_true,0,39452,english,NA,10,0
A1FH850HU7SUB4:3PMBY0YE28B8TWRZMCOKRH048A89CM,1450032309833,2,Jimmy's trip,lll,From what the brother said we may conclude that Jimmy did not visit the Empire State Building as well.,0,0,0,critical,exh1,1,37097,english,NA,10,0
A1FH850HU7SUB4:3PMBY0YE28B8TWRZMCOKRH048A89CM,1450032353887,3,Harold's pet,lll,Harold is single.,0,0,0,test,test_false,0,44050,english,NA,10,0
A1FH850HU7SUB4:3PMBY0YE28B8TWRZMCOKRH048A89CM,1450032364645,4,Harold's pet,lll,From what Richard said we may conclude that Harold did not buy a cat as well.,0,0,0,critical,exh2,1,10754,english,NA,10,0
A1FH850HU7SUB4:3PMBY0YE28B8TWRZMCOKRH048A89CM,1450032406600,5,Pete's accident,hhl,Pete's teacher saw him fall off the slide.,1,1,0,test,test_uncertain,0.5,41953,english,NA,10,0
A1FH850HU7SUB4:3PMBY0YE28B8TWRZMCOKRH048A89CM,1450032425429,6,Pete's accident,hhl,From what Pete's teacher said we may conclude that Pete did not break his leg as well.,1,1,0,critical,exh1,0.76,18825,english,NA,10,0
A1FH850HU7SUB4:3PMBY0YE28B8TWRZMCOKRH048A89CM,1450032463435,7,Chloe's holiday,lhh,"Chloe forgot about bringing some beach towels, too.",0,1,1,test,test_uncertain,0.21,38005,english,NA,10,0
A1FH850HU7SUB4:3PMBY0YE28B8TWRZMCOKRH048A89CM,1450032485426,8,Chloe's holiday,lhh,From what Chloe said we may conclude that Amelia did not bring some extra suntan lotion as well.,0,1,1,critical,exh1,0.67,21990,english,NA,10,0
A1FH850HU7SUB4:3PMBY0YE28B8TWRZMCOKRH048A89CM,1450032542570,9,Mrs Sanders' son,hhl,Ted is Mrs Sanders' husband.,1,1,0,test,test_false,0,57140,english,NA,10,0
A1FH850HU7SUB4:3PMBY0YE28B8TWRZMCOKRH048A89CM,1450032558913,10,Mrs Sanders' son,hhl,From what Mrs Sanders said we may conclude that Ted did not have pizza as well.,1,1,0,critical,exh2,0.61,16340,english,NA,10,0
A1FH850HU7SUB4:3PMBY0YE28B8TWRZMCOKRH048A89CM,1450032587239,11,Danny's racket,hhh,Alex needs to buy some equipment before he can play squash with Danny.,1,1,1,test,test_true,0.69,28325,english,NA,10,0
A1FH850HU7SUB4:3PMBY0YE28B8TWRZMCOKRH048A89CM,1450032594206,12,Danny's racket,hhh,From what Alex's girlfriend said we may conclude that Alex did not buy a racket as well.,1,1,1,critical,exh2,0.26,6966,english,NA,10,0
A1FYFBIFYWTMJS:37TRT2X24RZEP3C2UOJ25R8PMUJJBJ,1450032216730,1,Gerald's graduation,llh,Nico finally graduated after studying for a long time.,0,0,1,test,test_false,1,14770,English,none,8,0
A1FYFBIFYWTMJS:37TRT2X24RZEP3C2UOJ25R8PMUJJBJ,1450032232106,2,Gerald's graduation,llh,From what Nico said we may conclude that Gerald's father did not attend the ceremony as well.,0,0,1,critical,exh1,0.71,15375,English,none,8,0
A1FYFBIFYWTMJS:37TRT2X24RZEP3C2UOJ25R8PMUJJBJ,1450032264154,3,Tony's clubbing,lhl,Techno is quite different from Jazz and from Metal.,0,1,0,test,test_true,1,32046,English,none,8,0
A1FYFBIFYWTMJS:37TRT2X24RZEP3C2UOJ25R8PMUJJBJ,1450032273890,4,Tony's clubbing,lhl,From what Rob said we may conclude that they do not play Jazz as well.,0,1,0,critical,exh2,1,9735,English,none,8,0
A1FYFBIFYWTMJS:37TRT2X24RZEP3C2UOJ25R8PMUJJBJ,1450032301795,5,Mrs Sanders' son,hhl,The teacher is trying to find out who queued up twice.,1,1,0,test,test_true,0,27903,English,none,8,0
A1FYFBIFYWTMJS:37TRT2X24RZEP3C2UOJ25R8PMUJJBJ,1450032305818,6,Mrs Sanders' son,hhl,From what Mrs Sanders said we may conclude that Ted did not have pizza as well.,1,1,0,critical,exh2,1,4022,English,none,8,0
A1FYFBIFYWTMJS:37TRT2X24RZEP3C2UOJ25R8PMUJJBJ,1450032318081,7,Harold's pet,lll,Harold's girlfriend gave in because Harold kept nagging her about wanting a pet.,0,0,0,test,test_uncertain,1,12262,English,none,8,0
A1FYFBIFYWTMJS:37TRT2X24RZEP3C2UOJ25R8PMUJJBJ,1450032321367,8,Harold's pet,lll,From what Richard said we may conclude that Harold did not buy a dog as well.,0,0,0,critical,exh1,1,3285,English,none,8,0
A1FYFBIFYWTMJS:37TRT2X24RZEP3C2UOJ25R8PMUJJBJ,1450032333138,9,Pete's accident,hhl,Pete was injured while playing in the garden.,1,1,0,test,test_false,0,11770,English,none,8,0
A1FYFBIFYWTMJS:37TRT2X24RZEP3C2UOJ25R8PMUJJBJ,1450032337002,10,Pete's accident,hhl,From what Pete's teacher said we may conclude that Pete did not break his leg as well.,1,1,0,critical,exh1,1,3863,English,none,8,0
A1FYFBIFYWTMJS:37TRT2X24RZEP3C2UOJ25R8PMUJJBJ,1450032380676,11,Carl's party,hll,Carl's wife liked the music very much.,1,0,0,test,test_uncertain,0.21,43673,English,none,8,0
A1FYFBIFYWTMJS:37TRT2X24RZEP3C2UOJ25R8PMUJJBJ,1450032386201,12,Carl's party,hll,From what John said we may conclude that Carl did not dance passionately with Sue as well.,1,0,0,critical,exh2,0.75,5524,English,none,8,0
A1G187YBG0DVMQ:35GCEFQ6I6WZMNDTXH7IB2Y3H0K3ZY,1450032142012,1,Gigi's exams,hlh,Gigi hired a private tutor to help her with her Biology and Chemistry exams.,1,0,1,test,test_false,0.97,15019,English,NA,6,2
A1G187YBG0DVMQ:35GCEFQ6I6WZMNDTXH7IB2Y3H0K3ZY,1450032147499,2,Gigi's exams,hlh,From what Carrie said we may conclude that Gigi did not pass her Chemistry exam as well.,1,0,1,critical,exh1,0.1,5485,English,NA,6,2
A1G187YBG0DVMQ:35GCEFQ6I6WZMNDTXH7IB2Y3H0K3ZY,1450032159482,3,Jimmy's trip,lll,Jimmy had told his friends about his plans to visit New York City before.,0,0,0,test,test_uncertain,0.24,11982,English,NA,6,2
A1G187YBG0DVMQ:35GCEFQ6I6WZMNDTXH7IB2Y3H0K3ZY,1450032181742,4,Jimmy's trip,lll,From what the brother said we may conclude that Jimmy did not visit the Statue of Liberty as well.,0,0,0,critical,exh2,0.84,22258,English,NA,6,2
A1G187YBG0DVMQ:35GCEFQ6I6WZMNDTXH7IB2Y3H0K3ZY,1450032190001,5,Mrs Gibbs' worry,hhh,Mrs Gibbs is worried about Cindy's health.,1,1,1,test,test_false,0.07,8258,English,NA,6,2
A1G187YBG0DVMQ:35GCEFQ6I6WZMNDTXH7IB2Y3H0K3ZY,1450032193512,6,Mrs Gibbs' worry,hhh,From what Cindy said we may conclude that Mr Gibbs did not have a beer as well.,1,1,1,critical,exh1,0.59,3509,English,NA,6,2
A1G187YBG0DVMQ:35GCEFQ6I6WZMNDTXH7IB2Y3H0K3ZY,1450032199439,7,Pete's accident,hhl,Pete's mother was not there when he fell of the slide.,1,1,0,test,test_true,0.89,5925,English,NA,6,2
A1G187YBG0DVMQ:35GCEFQ6I6WZMNDTXH7IB2Y3H0K3ZY,1450032202328,8,Pete's accident,hhl,From what Pete's teacher said we may conclude that Pete did not break his arm as well.,1,1,0,critical,exh2,0.38,2887,English,NA,6,2
A1G187YBG0DVMQ:35GCEFQ6I6WZMNDTXH7IB2Y3H0K3ZY,1450032209254,9,Chloe's holiday,lhh,"Chloe forgot about bringing some beach towels, too.",0,1,1,test,test_uncertain,0.06,6925,English,NA,6,2
A1G187YBG0DVMQ:35GCEFQ6I6WZMNDTXH7IB2Y3H0K3ZY,1450032214216,10,Chloe's holiday,lhh,From what Chloe said we may conclude that Amelia did not bring some extra suntan lotion as well.,0,1,1,critical,exh1,0.3,4961,English,NA,6,2
A1G187YBG0DVMQ:35GCEFQ6I6WZMNDTXH7IB2Y3H0K3ZY,1450032221123,11,Carl's party,hll,John did not spend much time outside.,1,0,0,test,test_true,0.4,6905,English,NA,6,2
A1G187YBG0DVMQ:35GCEFQ6I6WZMNDTXH7IB2Y3H0K3ZY,1450032223990,12,Carl's party,hll,From what John said we may conclude that Carl did not dance passionately with Sue as well.,1,0,0,critical,exh2,0.61,2857,English,NA,6,2
A1GXFMAC759VRM:3BGYGHDBBYSKVUEY4AKZ5HJ4QDL22E,1450033078251,1,Mrs Gibbs' worry,hhh,Mrs Gibbs did not accompany her husband when Cindy served him.,1,1,1,test,test_true,0.99,39314,English,"Everything worked great, no issues. ",8,5
A1GXFMAC759VRM:3BGYGHDBBYSKVUEY4AKZ5HJ4QDL22E,1450033094265,2,Mrs Gibbs' worry,hhh,From what Cindy said we may conclude that Mr Gibbs did not have a beer as well.,1,1,1,critical,exh1,0.03,16012,English,"Everything worked great, no issues. ",8,5
A1GXFMAC759VRM:3BGYGHDBBYSKVUEY4AKZ5HJ4QDL22E,1450033153865,3,Carl's party,hll,John did not spend much time outside.,1,0,0,test,test_true,0.3,59599,English,"Everything worked great, no issues. ",8,5
A1GXFMAC759VRM:3BGYGHDBBYSKVUEY4AKZ5HJ4QDL22E,1450033202058,4,Carl's party,hll,From what John said we may conclude that Carl did not dance passionately with Mary as well.,1,0,0,critical,exh1,0.1,48189,English,"Everything worked great, no issues. ",8,5
A1GXFMAC759VRM:3BGYGHDBBYSKVUEY4AKZ5HJ4QDL22E,1450033240429,5,Harold's pet,lll,Harold's girlfriend gave in because Harold kept nagging her about wanting a pet.,0,0,0,test,test_uncertain,0.76,38367,English,"Everything worked great, no issues. ",8,5
A1GXFMAC759VRM:3BGYGHDBBYSKVUEY4AKZ5HJ4QDL22E,1450033272048,6,Harold's pet,lll,From what Richard said we may conclude that Harold did not buy a cat as well.,0,0,0,critical,exh2,0.8,31617,English,"Everything worked great, no issues. ",8,5
A1GXFMAC759VRM:3BGYGHDBBYSKVUEY4AKZ5HJ4QDL22E,1450033306026,7,Gigi's exams,hlh,Gigi hired a private tutor to help her with her Biology and Chemistry exams.,1,0,1,test,test_false,0.04,33976,English,"Everything worked great, no issues. ",8,5
A1GXFMAC759VRM:3BGYGHDBBYSKVUEY4AKZ5HJ4QDL22E,1450033320279,8,Gigi's exams,hlh,From what Carrie said we may conclude that Gigi did not pass her Physics exam as well.,1,0,1,critical,exh2,0.51,14252,English,"Everything worked great, no issues. ",8,5
A1GXFMAC759VRM:3BGYGHDBBYSKVUEY4AKZ5HJ4QDL22E,1450033345707,9,Pete's accident,hhl,Pete's teacher saw him fall off the slide.,1,1,0,test,test_uncertain,0.65,25428,English,"Everything worked great, no issues. ",8,5
A1GXFMAC759VRM:3BGYGHDBBYSKVUEY4AKZ5HJ4QDL22E,1450033352751,10,Pete's accident,hhl,From what Pete's teacher said we may conclude that Pete did not break his leg as well.,1,1,0,critical,exh1,0.95,7042,English,"Everything worked great, no issues. ",8,5
A1GXFMAC759VRM:3BGYGHDBBYSKVUEY4AKZ5HJ4QDL22E,1450033379565,11,Jimmy's trip,lll,Jimmy went on a school trip to New York City.,0,0,0,test,test_false,0,26813,English,"Everything worked great, no issues. ",8,5
A1GXFMAC759VRM:3BGYGHDBBYSKVUEY4AKZ5HJ4QDL22E,1450033387882,12,Jimmy's trip,lll,From what the brother said we may conclude that Jimmy did not visit the Statue of Liberty as well.,0,0,0,critical,exh2,0.75,8316,English,"Everything worked great, no issues. ",8,5
A1J3M4XC3O6ZUI:3SNLUL3WO5VZGS98X0CAQWD5F4VULD,1450032225974,1,Chloe's holiday,lhh,Chloe recently got back from holidays.,0,1,1,test,test_true,0.79,51414,english,none,10,0
A1J3M4XC3O6ZUI:3SNLUL3WO5VZGS98X0CAQWD5F4VULD,1450032227760,2,Chloe's holiday,lhh,From what Chloe said we may conclude that Amelia did not bring some extra suntan lotion as well.,0,1,1,critical,exh1,0.73,1786,english,none,10,0
A1J3M4XC3O6ZUI:3SNLUL3WO5VZGS98X0CAQWD5F4VULD,1450032237486,3,Carl's party,hll,"John and Carl, the hosts, are a gay couple.",1,0,0,test,test_false,0.16,9726,english,none,10,0
A1J3M4XC3O6ZUI:3SNLUL3WO5VZGS98X0CAQWD5F4VULD,1450032261629,4,Carl's party,hll,From what John said we may conclude that Carl did not dance passionately with Sue as well.,1,0,0,critical,exh2,0.88,24143,english,none,10,0
A1J3M4XC3O6ZUI:3SNLUL3WO5VZGS98X0CAQWD5F4VULD,1450032273503,5,Brad's clothes,hlh,Brad is not happy about the fact that his friends make jokes about his shabby clothes.,1,0,1,test,test_true,0.15,11864,english,none,10,0
A1J3M4XC3O6ZUI:3SNLUL3WO5VZGS98X0CAQWD5F4VULD,1450032280188,6,Brad's clothes,hlh,From what Gina said we may conclude that Brad did not buy a sweater as well.,1,0,1,critical,exh2,0.21,6685,english,none,10,0
A1J3M4XC3O6ZUI:3SNLUL3WO5VZGS98X0CAQWD5F4VULD,1450032292453,7,Leo's wife,hll,Leo is an avid golf player.,1,0,0,test,test_uncertain,0.84,12265,english,none,10,0
A1J3M4XC3O6ZUI:3SNLUL3WO5VZGS98X0CAQWD5F4VULD,1450032312643,8,Leo's wife,hll,From what Hans said we may conclude that the player in question didn't make a hole-in-one on the second hole as well.,1,0,0,critical,exh1,0.02,20190,english,none,10,0
A1J3M4XC3O6ZUI:3SNLUL3WO5VZGS98X0CAQWD5F4VULD,1450032316260,9,Pete's accident,hhl,Pete was injured while playing in the garden.,1,1,0,test,test_false,0.81,3617,english,none,10,0
A1J3M4XC3O6ZUI:3SNLUL3WO5VZGS98X0CAQWD5F4VULD,1450032344295,10,Pete's accident,hhl,From what Pete's teacher said we may conclude that Pete did not break his arm as well.,1,1,0,critical,exh2,0.09,28035,english,none,10,0
A1J3M4XC3O6ZUI:3SNLUL3WO5VZGS98X0CAQWD5F4VULD,1450032359032,11,Joshua's delay,llh,"Kevin, Cory and Joshua do not like to hang out with girls.",0,0,1,test,test_uncertain,0.13,14735,english,none,10,0
A1J3M4XC3O6ZUI:3SNLUL3WO5VZGS98X0CAQWD5F4VULD,1450032372832,12,Joshua's delay,llh,From what Cory said we may conclude that Joshua did not have to do his homework as well.,0,0,1,critical,exh1,0.86,13800,english,none,10,0
A1JCFCPGEYT1L4:35K3O9HUACLWR42QLPU7R1MIWKVFES,1450103676594,1,Chloe's holiday,lhh,"Chloe forgot about bringing some beach towels, too.",0,1,1,test,test_uncertain,0.75,19546,english,NA,10,3
A1JCFCPGEYT1L4:35K3O9HUACLWR42QLPU7R1MIWKVFES,1450103682951,2,Chloe's holiday,lhh,From what Chloe said we may conclude that Amelia did not bring some extra suntan lotion as well.,0,1,1,critical,exh1,0.22,6353,english,NA,10,3
A1JCFCPGEYT1L4:35K3O9HUACLWR42QLPU7R1MIWKVFES,1450103694033,3,Leo's wife,hll,Leo is wealthy.,1,0,0,test,test_true,1,11079,english,NA,10,3
A1JCFCPGEYT1L4:35K3O9HUACLWR42QLPU7R1MIWKVFES,1450103710318,4,Leo's wife,hll,From what Hans said we may conclude that the player in question didn't make a hole-in-one on the first hole as well,1,0,0,critical,exh2,0.18,16282,english,NA,10,3
A1JCFCPGEYT1L4:35K3O9HUACLWR42QLPU7R1MIWKVFES,1450103727529,5,Jimmy's trip,lll,Jimmy went on a school trip to New York City.,0,0,0,test,test_false,0.2,17209,english,NA,10,3
A1JCFCPGEYT1L4:35K3O9HUACLWR42QLPU7R1MIWKVFES,1450103734494,6,Jimmy's trip,lll,From what the brother said we may conclude that Jimmy did not visit the Statue of Liberty as well.,0,0,0,critical,exh2,0.2,6961,english,NA,10,3
A1JCFCPGEYT1L4:35K3O9HUACLWR42QLPU7R1MIWKVFES,1450103748430,7,Tony's clubbing,lhl,Rob is a big fan of Techno music as well.,0,1,0,test,test_uncertain,0.24,13933,english,NA,10,3
A1JCFCPGEYT1L4:35K3O9HUACLWR42QLPU7R1MIWKVFES,1450103756374,8,Tony's clubbing,lhl,From what Rob said we may conclude that they do not play Jazz as well.,0,1,0,critical,exh2,1,7941,english,NA,10,3
A1JCFCPGEYT1L4:35K3O9HUACLWR42QLPU7R1MIWKVFES,1450103766950,9,Pete's accident,hhl,Pete was injured while playing in the garden.,1,1,0,test,test_false,0,10574,english,NA,10,3
A1JCFCPGEYT1L4:35K3O9HUACLWR42QLPU7R1MIWKVFES,1450103775701,10,Pete's accident,hhl,From what Pete's teacher said we may conclude that Pete did not break his leg as well.,1,1,0,critical,exh1,1,8749,english,NA,10,3
A1JCFCPGEYT1L4:35K3O9HUACLWR42QLPU7R1MIWKVFES,1450103785007,11,Mrs Gibbs' worry,hhh,Mrs Gibbs did not accompany her husband when Cindy served him.,1,1,1,test,test_true,1,9303,english,NA,10,3
A1JCFCPGEYT1L4:35K3O9HUACLWR42QLPU7R1MIWKVFES,1450103796683,12,Mrs Gibbs' worry,hhh,From what Cindy said we may conclude that Mr Gibbs did not have a beer as well.,1,1,1,critical,exh1,0.69,11673,english,NA,10,3
A1JMB9Z7EYHU1O:3TE22NPXPCK41M88C2MBRBD0U5D448,1450030064867,1,Joshua's delay,llh,"Kevin, Cory and Joshua are brothers.",0,0,1,test,test_false,0.16,21887,English,N/A,7,7
A1JMB9Z7EYHU1O:3TE22NPXPCK41M88C2MBRBD0U5D448,1450030072769,2,Joshua's delay,llh,From what Cory said we may conclude that Joshua did not have to do his homework as well.,0,0,1,critical,exh1,0,7902,English,N/A,7,7
A1JMB9Z7EYHU1O:3TE22NPXPCK41M88C2MBRBD0U5D448,1450030089449,3,Lily's husband,lhl,Eric and Lily went to a bar together last night.,0,1,0,test,test_false,0,16680,English,N/A,7,7
A1JMB9Z7EYHU1O:3TE22NPXPCK41M88C2MBRBD0U5D448,1450030095117,4,Lily's husband,lhl,From what Bill said we may conclude that Eric did not drink whisky as well.,0,1,0,critical,exh2,0.26,5653,English,N/A,7,7
A1JMB9Z7EYHU1O:3TE22NPXPCK41M88C2MBRBD0U5D448,1450030115609,5,Gigi's exams,hlh,Gigi aspires to a career in science.,1,0,1,test,test_uncertain,0.73,20492,English,N/A,7,7
A1JMB9Z7EYHU1O:3TE22NPXPCK41M88C2MBRBD0U5D448,1450030120297,6,Gigi's exams,hlh,From what Carrie said we may conclude that Gigi did not pass her Physics exam as well.,1,0,1,critical,exh2,0.28,4688,English,N/A,7,7
A1JMB9Z7EYHU1O:3TE22NPXPCK41M88C2MBRBD0U5D448,1450030140855,7,Jimmy's trip,lll,Jimmy had told his friends about his plans to visit New York City before.,0,0,0,test,test_uncertain,0.62,20558,English,N/A,7,7
A1JMB9Z7EYHU1O:3TE22NPXPCK41M88C2MBRBD0U5D448,1450030146390,8,Jimmy's trip,lll,From what the brother said we may conclude that Jimmy did not visit the Empire State Building as well.,0,0,0,critical,exh1,0,5535,English,N/A,7,7
A1JMB9Z7EYHU1O:3TE22NPXPCK41M88C2MBRBD0U5D448,1450030159738,9,Gerald's graduation,llh,Gerald is friends with both Nico and Rick.,0,0,1,test,test_true,1,13332,English,N/A,7,7
A1JMB9Z7EYHU1O:3TE22NPXPCK41M88C2MBRBD0U5D448,1450030165757,10,Gerald's graduation,llh,From what Nico said we may conclude that Gerald's father did not attend the ceremony as well.,0,0,1,critical,exh1,0.02,6019,English,N/A,7,7
A1JMB9Z7EYHU1O:3TE22NPXPCK41M88C2MBRBD0U5D448,1450030188007,11,Tony's clubbing,lhl,Techno is quite different from Jazz and from Metal.,0,1,0,test,test_true,0.04,22250,English,N/A,7,7
A1JMB9Z7EYHU1O:3TE22NPXPCK41M88C2MBRBD0U5D448,1450030197922,12,Tony's clubbing,lhl,From what Rob said we may conclude that they do not play Jazz as well.,0,1,0,critical,exh2,0.27,9915,English,N/A,7,7
A1LEZ2R6RERVAB:3WLEIWSYHPPOAKHGNVN6SLP6FW32HW,1450032447029,1,Danny's racket,hhh,Danny and Alex have known each other since high school.,1,1,1,test,test_uncertain,0.67,49272,English,"I feel the questions were really hard to answer, but it also made me evaluate how I myself read into things. I just hope I didn't get too many wrong.",10,9
A1LEZ2R6RERVAB:3WLEIWSYHPPOAKHGNVN6SLP6FW32HW,1450032463685,2,Danny's racket,hhh,From what Alex's girlfriend said we may conclude that Alex did not buy a racket as well.,1,1,1,critical,exh2,1,16655,English,"I feel the questions were really hard to answer, but it also made me evaluate how I myself read into things. I just hope I didn't get too many wrong.",10,9
A1LEZ2R6RERVAB:3WLEIWSYHPPOAKHGNVN6SLP6FW32HW,1450032521792,3,Gerald's graduation,llh,Nico finally graduated after studying for a long time.,0,0,1,test,test_false,0.5,58107,English,"I feel the questions were really hard to answer, but it also made me evaluate how I myself read into things. I just hope I didn't get too many wrong.",10,9
A1LEZ2R6RERVAB:3WLEIWSYHPPOAKHGNVN6SLP6FW32HW,1450032536488,4,Gerald's graduation,llh,From what Nico said we may conclude that Gerald's father did not attend the ceremony as well.,0,0,1,critical,exh1,0.85,14696,English,"I feel the questions were really hard to answer, but it also made me evaluate how I myself read into things. I just hope I didn't get too many wrong.",10,9
A1LEZ2R6RERVAB:3WLEIWSYHPPOAKHGNVN6SLP6FW32HW,1450032583713,5,Joshua's delay,llh,Kevin and Cory expected Joshua to arrive earlier.,0,0,1,test,test_true,1,47224,English,"I feel the questions were really hard to answer, but it also made me evaluate how I myself read into things. I just hope I didn't get too many wrong.",10,9
A1LEZ2R6RERVAB:3WLEIWSYHPPOAKHGNVN6SLP6FW32HW,1450032604576,6,Joshua's delay,llh,From what Cory said we may conclude that Joshua did not have to do his homework as well.,0,0,1,critical,exh1,1,20863,English,"I feel the questions were really hard to answer, but it also made me evaluate how I myself read into things. I just hope I didn't get too many wrong.",10,9
A1LEZ2R6RERVAB:3WLEIWSYHPPOAKHGNVN6SLP6FW32HW,1450032645455,7,Mrs Gibbs' worry,hhh,Cindy is secretly in love with Mrs Gibbs' husband.,1,1,1,test,test_uncertain,0,40879,English,"I feel the questions were really hard to answer, but it also made me evaluate how I myself read into things. I just hope I didn't get too many wrong.",10,9
A1LEZ2R6RERVAB:3WLEIWSYHPPOAKHGNVN6SLP6FW32HW,1450032657246,8,Mrs Gibbs' worry,hhh,From what Cindy said we may conclude that Mr Gibbs did not have a beer as well.,1,1,1,critical,exh1,0.7,11790,English,"I feel the questions were really hard to answer, but it also made me evaluate how I myself read into things. I just hope I didn't get too many wrong.",10,9
A1LEZ2R6RERVAB:3WLEIWSYHPPOAKHGNVN6SLP6FW32HW,1450032695347,9,Lily's husband,lhl,Eric and Lily went to a bar together last night.,0,1,0,test,test_false,0,38100,English,"I feel the questions were really hard to answer, but it also made me evaluate how I myself read into things. I just hope I didn't get too many wrong.",10,9
A1LEZ2R6RERVAB:3WLEIWSYHPPOAKHGNVN6SLP6FW32HW,1450032717618,10,Lily's husband,lhl,From what Bill said we may conclude that Eric did not drink whisky as well.,0,1,0,critical,exh2,0.67,22270,English,"I feel the questions were really hard to answer, but it also made me evaluate how I myself read into things. I just hope I didn't get too many wrong.",10,9
A1LEZ2R6RERVAB:3WLEIWSYHPPOAKHGNVN6SLP6FW32HW,1450032749244,11,Brad's clothes,hlh,Brad is not happy about the fact that his friends make jokes about his shabby clothes.,1,0,1,test,test_true,1,31625,English,"I feel the questions were really hard to answer, but it also made me evaluate how I myself read into things. I just hope I didn't get too many wrong.",10,9
A1LEZ2R6RERVAB:3WLEIWSYHPPOAKHGNVN6SLP6FW32HW,1450032759559,12,Brad's clothes,hlh,From what Gina said we may conclude that Brad did not buy a sweater as well.,1,0,1,critical,exh2,0.9,10315,English,"I feel the questions were really hard to answer, but it also made me evaluate how I myself read into things. I just hope I didn't get too many wrong.",10,9
A1MZC8D6JFJQMB:3MH9DQ757XKJU0V7M9FUD48XJN9GUT,1450032272914,1,Lily's husband,lhl,Eric has a problem with his liver for which he has to stop drinking alcohol.,0,1,0,test,test_uncertain,0.79,12357,english,NA,8,5
A1MZC8D6JFJQMB:3MH9DQ757XKJU0V7M9FUD48XJN9GUT,1450032280036,2,Lily's husband,lhl,From what Bill said we may conclude that Eric did not drink vodka as well.,0,1,0,critical,exh1,0.65,7115,english,NA,8,5
A1MZC8D6JFJQMB:3MH9DQ757XKJU0V7M9FUD48XJN9GUT,1450032296774,3,Carl's party,hll,"John and Carl, the hosts, are a gay couple.",1,0,0,test,test_false,0.14,16734,english,NA,8,5
A1MZC8D6JFJQMB:3MH9DQ757XKJU0V7M9FUD48XJN9GUT,1450032310260,4,Carl's party,hll,From what John said we may conclude that Carl did not dance passionately with Sue as well.,1,0,0,critical,exh2,0.68,13472,english,NA,8,5
A1MZC8D6JFJQMB:3MH9DQ757XKJU0V7M9FUD48XJN9GUT,1450032323335,5,Gigi's exams,hlh,Gigi studied hard to pass her exams.,1,0,1,test,test_true,1,13062,english,NA,8,5
A1MZC8D6JFJQMB:3MH9DQ757XKJU0V7M9FUD48XJN9GUT,1450032332770,6,Gigi's exams,hlh,From what Carrie said we may conclude that Gigi did not pass her Physics exam as well.,1,0,1,critical,exh2,0,9423,english,NA,8,5
A1MZC8D6JFJQMB:3MH9DQ757XKJU0V7M9FUD48XJN9GUT,1450032349943,7,Joshua's delay,llh,"Kevin, Cory and Joshua do not like to hang out with girls.",0,0,1,test,test_uncertain,0.56,17165,english,NA,8,5
A1MZC8D6JFJQMB:3MH9DQ757XKJU0V7M9FUD48XJN9GUT,1450032357335,8,Joshua's delay,llh,From what Cory said we may conclude that Joshua did not have to do his homework as well.,0,0,1,critical,exh1,0.63,7383,english,NA,8,5
A1MZC8D6JFJQMB:3MH9DQ757XKJU0V7M9FUD48XJN9GUT,1450032375202,9,Danny's racket,hhh,Danny and Alex went to the sports store together.,1,1,1,test,test_false,0.33,17863,english,NA,8,5
A1MZC8D6JFJQMB:3MH9DQ757XKJU0V7M9FUD48XJN9GUT,1450032379863,10,Danny's racket,hhh,From what Alex's girlfriend said we may conclude that Alex did not buy a pair of shoes as well.,1,1,1,critical,exh1,0.89,4653,english,NA,8,5
A1MZC8D6JFJQMB:3MH9DQ757XKJU0V7M9FUD48XJN9GUT,1450032390046,11,Gerald's graduation,llh,Gerald is friends with both Nico and Rick.,0,0,1,test,test_true,1,10179,english,NA,8,5
A1MZC8D6JFJQMB:3MH9DQ757XKJU0V7M9FUD48XJN9GUT,1450032397529,12,Gerald's graduation,llh,From what Nico said we may conclude that Gerald's mother did not attend the ceremony as well.,0,0,1,critical,exh2,0.29,7477,english,NA,8,5
A1NITMHYG5YL3H:3ZAZR5XV02QNZN9CQAIJ452XNDWZCR,1450032623492,1,Mrs Sanders' son,hhl,The teacher is trying to find out who queued up twice.,1,1,0,test,test_true,0.32,24884,English,"No, thank you.",10,4
A1NITMHYG5YL3H:3ZAZR5XV02QNZN9CQAIJ452XNDWZCR,1450032628252,2,Mrs Sanders' son,hhl,From what Mrs Sanders said we may conclude that Ted did not have pizza as well.,1,1,0,critical,exh2,0.62,4757,English,"No, thank you.",10,4
A1NITMHYG5YL3H:3ZAZR5XV02QNZN9CQAIJ452XNDWZCR,1450032646276,3,Carl's party,hll,John did not spend much time outside.,1,0,0,test,test_true,0.97,18020,English,"No, thank you.",10,4
A1NITMHYG5YL3H:3ZAZR5XV02QNZN9CQAIJ452XNDWZCR,1450032653772,4,Carl's party,hll,From what John said we may conclude that Carl did not dance passionately with Sue as well.,1,0,0,critical,exh2,0.68,7493,English,"No, thank you.",10,4
A1NITMHYG5YL3H:3ZAZR5XV02QNZN9CQAIJ452XNDWZCR,1450032676316,5,Leo's wife,hll,Leo is an avid golf player.,1,0,0,test,test_uncertain,0.73,22541,English,"No, thank you.",10,4
A1NITMHYG5YL3H:3ZAZR5XV02QNZN9CQAIJ452XNDWZCR,1450032682531,6,Leo's wife,hll,From what Hans said we may conclude that the player in question didn't make a hole-in-one on the first hole as well,1,0,0,critical,exh2,0.77,6213,English,"No, thank you.",10,4
A1NITMHYG5YL3H:3ZAZR5XV02QNZN9CQAIJ452XNDWZCR,1450032696091,7,Lily's husband,lhl,Eric and Lily went to a bar together last night.,0,1,0,test,test_false,0,13558,English,"No, thank you.",10,4
A1NITMHYG5YL3H:3ZAZR5XV02QNZN9CQAIJ452XNDWZCR,1450032700747,8,Lily's husband,lhl,From what Bill said we may conclude that Eric did not drink vodka as well.,0,1,0,critical,exh1,0.58,4654,English,"No, thank you.",10,4
A1NITMHYG5YL3H:3ZAZR5XV02QNZN9CQAIJ452XNDWZCR,1450032714572,9,Chloe's holiday,lhh,"Chloe forgot about bringing some beach towels, too.",0,1,1,test,test_uncertain,0.14,13824,English,"No, thank you.",10,4
A1NITMHYG5YL3H:3ZAZR5XV02QNZN9CQAIJ452XNDWZCR,1450032719443,10,Chloe's holiday,lhh,From what Chloe said we may conclude that Amelia did not bring some extra suntan lotion as well.,0,1,1,critical,exh1,0.57,4868,English,"No, thank you.",10,4
A1NITMHYG5YL3H:3ZAZR5XV02QNZN9CQAIJ452XNDWZCR,1450032740165,11,Gigi's exams,hlh,Gigi hired a private tutor to help her with her Biology and Chemistry exams.,1,0,1,test,test_false,0.28,20719,English,"No, thank you.",10,4
A1NITMHYG5YL3H:3ZAZR5XV02QNZN9CQAIJ452XNDWZCR,1450032745219,12,Gigi's exams,hlh,From what Carrie said we may conclude that Gigi did not pass her Chemistry exam as well.,1,0,1,critical,exh1,0.4,5052,English,"No, thank you.",10,4
A1NQLW1UROVH81:3N4BPTXIO90OWMRQC009BW0QQ4QUKA,1450032138653,1,Pete's accident,hhl,Pete was injured while playing in the garden.,1,1,0,test,test_false,1,15290,english,NA,10,2
A1NQLW1UROVH81:3N4BPTXIO90OWMRQC009BW0QQ4QUKA,1450032149626,2,Pete's accident,hhl,From what Pete's teacher said we may conclude that Pete did not break his leg as well.,1,1,0,critical,exh1,1,10973,english,NA,10,2
A1NQLW1UROVH81:3N4BPTXIO90OWMRQC009BW0QQ4QUKA,1450032181264,3,Mrs Sanders' son,hhl,The teacher is trying to find out who queued up twice.,1,1,0,test,test_true,0,31638,english,NA,10,2
A1NQLW1UROVH81:3N4BPTXIO90OWMRQC009BW0QQ4QUKA,1450032186936,4,Mrs Sanders' son,hhl,From what Mrs Sanders said we may conclude that Ted did not have pizza as well.,1,1,0,critical,exh2,1,5672,english,NA,10,2
A1NQLW1UROVH81:3N4BPTXIO90OWMRQC009BW0QQ4QUKA,1450032207472,5,Tony's clubbing,lhl,Tony has to work at club Macabre tonight.,0,1,0,test,test_false,0,20536,english,NA,10,2
A1NQLW1UROVH81:3N4BPTXIO90OWMRQC009BW0QQ4QUKA,1450032216089,6,Tony's clubbing,lhl,From what Rob said we may conclude that they do not play Jazz as well.,0,1,0,critical,exh2,0,8617,english,NA,10,2
A1NQLW1UROVH81:3N4BPTXIO90OWMRQC009BW0QQ4QUKA,1450032245569,7,Harold's pet,lll,Harold's girlfriend didn't want a pet in her house before.,0,0,0,test,test_true,1,29480,english,NA,10,2
A1NQLW1UROVH81:3N4BPTXIO90OWMRQC009BW0QQ4QUKA,1450032251468,8,Harold's pet,lll,From what Richard said we may conclude that Harold did not buy a dog as well.,0,0,0,critical,exh1,1,5891,english,NA,10,2
A1NQLW1UROVH81:3N4BPTXIO90OWMRQC009BW0QQ4QUKA,1450032268002,9,Chloe's holiday,lhh,"Chloe forgot about bringing some beach towels, too.",0,1,1,test,test_uncertain,0,16534,english,NA,10,2
A1NQLW1UROVH81:3N4BPTXIO90OWMRQC009BW0QQ4QUKA,1450032279548,10,Chloe's holiday,lhh,From what Chloe said we may conclude that Amelia did not bring some extra suntan lotion as well.,0,1,1,critical,exh1,0,11546,english,NA,10,2
A1NQLW1UROVH81:3N4BPTXIO90OWMRQC009BW0QQ4QUKA,1450032298699,11,Carl's party,hll,Carl's wife liked the music very much.,1,0,0,test,test_uncertain,0,19147,english,NA,10,2
A1NQLW1UROVH81:3N4BPTXIO90OWMRQC009BW0QQ4QUKA,1450032304446,12,Carl's party,hll,From what John said we may conclude that Carl did not dance passionately with Sue as well.,1,0,0,critical,exh2,1,5739,english,NA,10,2
A1PF01FF85HUY4:3P4RDNWND6EOCBQ80YBJREC2HKKJI9,1450104214418,1,Chloe's holiday,lhh,"Chloe forgot about bringing some beach towels, too.",0,1,1,test,test_uncertain,0.25,18723,English,not really,10,3
A1PF01FF85HUY4:3P4RDNWND6EOCBQ80YBJREC2HKKJI9,1450104228721,2,Chloe's holiday,lhh,From what Chloe said we may conclude that Amelia did not bring some extra suntan lotion as well.,0,1,1,critical,exh1,0,14302,English,not really,10,3
A1PF01FF85HUY4:3P4RDNWND6EOCBQ80YBJREC2HKKJI9,1450104240894,3,Danny's racket,hhh,Danny and Alex have known each other since high school.,1,1,1,test,test_uncertain,0.28,12170,English,not really,10,3
A1PF01FF85HUY4:3P4RDNWND6EOCBQ80YBJREC2HKKJI9,1450104259763,4,Danny's racket,hhh,From what Alex's girlfriend said we may conclude that Alex did not buy a racket as well.,1,1,1,critical,exh2,0.47,18866,English,not really,10,3
A1PF01FF85HUY4:3P4RDNWND6EOCBQ80YBJREC2HKKJI9,1450104281479,5,Tony's clubbing,lhl,Techno is quite different from Jazz and from Metal.,0,1,0,test,test_true,1,21714,English,not really,10,3
A1PF01FF85HUY4:3P4RDNWND6EOCBQ80YBJREC2HKKJI9,1450104287634,6,Tony's clubbing,lhl,From what Rob said we may conclude that they do not play Jazz as well.,0,1,0,critical,exh2,1,6153,English,not really,10,3
A1PF01FF85HUY4:3P4RDNWND6EOCBQ80YBJREC2HKKJI9,1450104299979,7,Brad's clothes,hlh,Gina and Mandy accompanied Brad on his shopping trip.,1,0,1,test,test_false,1,12341,English,not really,10,3
A1PF01FF85HUY4:3P4RDNWND6EOCBQ80YBJREC2HKKJI9,1450104308473,8,Brad's clothes,hlh,From what Gina said we may conclude that Brad did not buy pair of jeans as well.,1,0,1,critical,exh1,0.64,8488,English,not really,10,3
A1PF01FF85HUY4:3P4RDNWND6EOCBQ80YBJREC2HKKJI9,1450104323663,9,Jimmy's trip,lll,Jimmy had to rush to be back home and did not have much time to spend in the city.,0,0,0,test,test_true,0.31,15189,English,not really,10,3
A1PF01FF85HUY4:3P4RDNWND6EOCBQ80YBJREC2HKKJI9,1450104330863,10,Jimmy's trip,lll,From what the brother said we may conclude that Jimmy did not visit the Empire State Building as well.,0,0,0,critical,exh1,0.42,7197,English,not really,10,3
A1PF01FF85HUY4:3P4RDNWND6EOCBQ80YBJREC2HKKJI9,1450104337989,11,Pete's accident,hhl,Pete was injured while playing in the garden.,1,1,0,test,test_false,1,7124,English,not really,10,3
A1PF01FF85HUY4:3P4RDNWND6EOCBQ80YBJREC2HKKJI9,1450104343065,12,Pete's accident,hhl,From what Pete's teacher said we may conclude that Pete did not break his arm as well.,1,1,0,critical,exh2,0.58,5075,English,not really,10,3
A1QHJGHKDIG3T5:3GU1KF0O4J9ABEF0P1OM2NU1VT7PB7,1450106616810,1,Gigi's exams,hlh,Gigi studied hard to pass her exams.,1,0,1,test,test_true,1,25326,Tamil,Fun & interesting study,7,3
A1QHJGHKDIG3T5:3GU1KF0O4J9ABEF0P1OM2NU1VT7PB7,1450106624140,2,Gigi's exams,hlh,From what Carrie said we may conclude that Gigi did not pass her Chemistry exam as well.,1,0,1,critical,exh1,0.35,7330,Tamil,Fun & interesting study,7,3
A1QHJGHKDIG3T5:3GU1KF0O4J9ABEF0P1OM2NU1VT7PB7,1450106646105,3,Pete's accident,hhl,Pete's teacher saw him fall off the slide.,1,1,0,test,test_uncertain,0.45,21965,Tamil,Fun & interesting study,7,3
A1QHJGHKDIG3T5:3GU1KF0O4J9ABEF0P1OM2NU1VT7PB7,1450106659230,4,Pete's accident,hhl,From what Pete's teacher said we may conclude that Pete did not break his leg as well.,1,1,0,critical,exh1,1,13125,Tamil,Fun & interesting study,7,3
A1QHJGHKDIG3T5:3GU1KF0O4J9ABEF0P1OM2NU1VT7PB7,1450106687411,5,Mrs Sanders' son,hhl,Ted is Mrs Sanders' husband.,1,1,0,test,test_false,0,28181,Tamil,Fun & interesting study,7,3
A1QHJGHKDIG3T5:3GU1KF0O4J9ABEF0P1OM2NU1VT7PB7,1450106695245,6,Mrs Sanders' son,hhl,From what Mrs Sanders said we may conclude that Ted did not have pizza as well.,1,1,0,critical,exh2,0.67,7834,Tamil,Fun & interesting study,7,3
A1QHJGHKDIG3T5:3GU1KF0O4J9ABEF0P1OM2NU1VT7PB7,1450106713200,7,Mrs Gibbs' worry,hhh,Mrs Gibbs did not accompany her husband when Cindy served him.,1,1,1,test,test_true,1,17955,Tamil,Fun & interesting study,7,3
A1QHJGHKDIG3T5:3GU1KF0O4J9ABEF0P1OM2NU1VT7PB7,1450106723496,8,Mrs Gibbs' worry,hhh,From what Cindy said we may conclude that Mr Gibbs did not have a steak as well.,1,1,1,critical,exh2,0.39,10296,Tamil,Fun & interesting study,7,3
A1QHJGHKDIG3T5:3GU1KF0O4J9ABEF0P1OM2NU1VT7PB7,1450106738182,9,Tony's clubbing,lhl,Rob is a big fan of Techno music as well.,0,1,0,test,test_uncertain,0.69,14686,Tamil,Fun & interesting study,7,3
A1QHJGHKDIG3T5:3GU1KF0O4J9ABEF0P1OM2NU1VT7PB7,1450106743516,10,Tony's clubbing,lhl,From what Rob said we may conclude that they do not play Jazz as well.,0,1,0,critical,exh2,0.51,5334,Tamil,Fun & interesting study,7,3
A1QHJGHKDIG3T5:3GU1KF0O4J9ABEF0P1OM2NU1VT7PB7,1450106770978,11,Carl's party,hll,"John and Carl, the hosts, are a gay couple.",1,0,0,test,test_false,0.5,27461,Tamil,Fun & interesting study,7,3
A1QHJGHKDIG3T5:3GU1KF0O4J9ABEF0P1OM2NU1VT7PB7,1450106777087,12,Carl's party,hll,From what John said we may conclude that Carl did not dance passionately with Mary as well.,1,0,0,critical,exh1,0.5,6109,Tamil,Fun & interesting study,7,3
A1RDRK3QTM7U96:333U7HK6IAN740AM8KA80HWPPFCDJ1,1450104745559,1,Gigi's exams,hlh,Gigi hired a private tutor to help her with her Biology and Chemistry exams.,1,0,1,test,test_false,0.86,13680,English,NA,6,2
A1RDRK3QTM7U96:333U7HK6IAN740AM8KA80HWPPFCDJ1,1450104769214,2,Gigi's exams,hlh,From what Carrie said we may conclude that Gigi did not pass her Physics exam as well.,1,0,1,critical,exh2,0.36,23654,English,NA,6,2
A1RDRK3QTM7U96:333U7HK6IAN740AM8KA80HWPPFCDJ1,1450104788198,3,Carl's party,hll,John did not spend much time outside.,1,0,0,test,test_true,0.5,18983,English,NA,6,2
A1RDRK3QTM7U96:333U7HK6IAN740AM8KA80HWPPFCDJ1,1450104794522,4,Carl's party,hll,From what John said we may conclude that Carl did not dance passionately with Sue as well.,1,0,0,critical,exh2,0.67,6324,English,NA,6,2
A1RDRK3QTM7U96:333U7HK6IAN740AM8KA80HWPPFCDJ1,1450104802387,5,Pete's accident,hhl,Pete's mother was not there when he fell of the slide.,1,1,0,test,test_true,1,7864,English,NA,6,2
A1RDRK3QTM7U96:333U7HK6IAN740AM8KA80HWPPFCDJ1,1450104806603,6,Pete's accident,hhl,From what Pete's teacher said we may conclude that Pete did not break his leg as well.,1,1,0,critical,exh1,0.76,4216,English,NA,6,2
A1RDRK3QTM7U96:333U7HK6IAN740AM8KA80HWPPFCDJ1,1450104817923,7,Gerald's graduation,llh,Nico finally graduated after studying for a long time.,0,0,1,test,test_false,0.5,11319,English,NA,6,2
A1RDRK3QTM7U96:333U7HK6IAN740AM8KA80HWPPFCDJ1,1450104824947,8,Gerald's graduation,llh,From what Nico said we may conclude that Gerald's mother did not attend the ceremony as well.,0,0,1,critical,exh2,0.5,7023,English,NA,6,2
A1RDRK3QTM7U96:333U7HK6IAN740AM8KA80HWPPFCDJ1,1450104839659,9,Joshua's delay,llh,"Kevin, Cory and Joshua do not like to hang out with girls.",0,0,1,test,test_uncertain,0.5,14711,English,NA,6,2
A1RDRK3QTM7U96:333U7HK6IAN740AM8KA80HWPPFCDJ1,1450104845154,10,Joshua's delay,llh,From what Cory said we may conclude that Joshua did not have to do his homework as well.,0,0,1,critical,exh1,0.5,5494,English,NA,6,2
A1RDRK3QTM7U96:333U7HK6IAN740AM8KA80HWPPFCDJ1,1450104869527,11,Tony's clubbing,lhl,Rob is a big fan of Techno music as well.,0,1,0,test,test_uncertain,0.5,24373,English,NA,6,2
A1RDRK3QTM7U96:333U7HK6IAN740AM8KA80HWPPFCDJ1,1450104875823,12,Tony's clubbing,lhl,From what Rob said we may conclude that they do not play Metal as well.,0,1,0,critical,exh1,0.5,6296,English,NA,6,2
A1TLNLB9D87H6:37FMASSAYDZIUSSWC6Y2TQTP9FAIBM,1450102985009,1,Mrs Sanders' son,hhl,Ted is Mrs Sanders' husband.,1,1,0,test,test_false,0,39833,English,"This was interesting, but harder than I thought.",4,8
A1TLNLB9D87H6:37FMASSAYDZIUSSWC6Y2TQTP9FAIBM,1450103021576,2,Mrs Sanders' son,hhl,From what Mrs Sanders said we may conclude that Ted did not have pizza as well.,1,1,0,critical,exh2,1,36566,English,"This was interesting, but harder than I thought.",4,8
A1TLNLB9D87H6:37FMASSAYDZIUSSWC6Y2TQTP9FAIBM,1450103053945,3,Joshua's delay,llh,Kevin and Cory expected Joshua to arrive earlier.,0,0,1,test,test_true,0.15,32368,English,"This was interesting, but harder than I thought.",4,8
A1TLNLB9D87H6:37FMASSAYDZIUSSWC6Y2TQTP9FAIBM,1450103070824,4,Joshua's delay,llh,From what Cory said we may conclude that Joshua did not have to eat lunch as well.,0,0,1,critical,exh2,0.58,16877,English,"This was interesting, but harder than I thought.",4,8
A1TLNLB9D87H6:37FMASSAYDZIUSSWC6Y2TQTP9FAIBM,1450103099564,5,Tony's clubbing,lhl,Rob is a big fan of Techno music as well.,0,1,0,test,test_uncertain,0.2,28739,English,"This was interesting, but harder than I thought.",4,8
A1TLNLB9D87H6:37FMASSAYDZIUSSWC6Y2TQTP9FAIBM,1450103104300,6,Tony's clubbing,lhl,From what Rob said we may conclude that they do not play Jazz as well.,0,1,0,critical,exh2,1,4734,English,"This was interesting, but harder than I thought.",4,8
A1TLNLB9D87H6:37FMASSAYDZIUSSWC6Y2TQTP9FAIBM,1450103123286,7,Leo's wife,hll,Leo is sponsoring a tennis tournament.,1,0,0,test,test_false,0,18984,English,"This was interesting, but harder than I thought.",4,8
A1TLNLB9D87H6:37FMASSAYDZIUSSWC6Y2TQTP9FAIBM,1450103132254,8,Leo's wife,hll,From what Hans said we may conclude that the player in question didn't make a hole-in-one on the second hole as well.,1,0,0,critical,exh1,0.34,8967,English,"This was interesting, but harder than I thought.",4,8
A1TLNLB9D87H6:37FMASSAYDZIUSSWC6Y2TQTP9FAIBM,1450103167661,9,Jimmy's trip,lll,Jimmy had told his friends about his plans to visit New York City before.,0,0,0,test,test_uncertain,0.41,35405,English,"This was interesting, but harder than I thought.",4,8
A1TLNLB9D87H6:37FMASSAYDZIUSSWC6Y2TQTP9FAIBM,1450103175687,10,Jimmy's trip,lll,From what the brother said we may conclude that Jimmy did not visit the Empire State Building as well.,0,0,0,critical,exh1,0.29,8025,English,"This was interesting, but harder than I thought.",4,8
A1TLNLB9D87H6:37FMASSAYDZIUSSWC6Y2TQTP9FAIBM,1450103192245,11,Lily's husband,lhl,Eric's doctor told him to stop drinking alcohol.,0,1,0,test,test_true,0.9,16557,English,"This was interesting, but harder than I thought.",4,8
A1TLNLB9D87H6:37FMASSAYDZIUSSWC6Y2TQTP9FAIBM,1450103199150,12,Lily's husband,lhl,From what Bill said we may conclude that Eric did not drink vodka as well.,0,1,0,critical,exh1,0.86,6904,English,"This was interesting, but harder than I thought.",4,8
A1TVT4Y89RDEAW:31EUONYN2WB7ZS15FI27EZJIOG9OVD,1450032662608,1,Tony's clubbing,lhl,Tony has to work at club Macabre tonight.,0,1,0,test,test_false,0.03,68875,English,No,7,4
A1TVT4Y89RDEAW:31EUONYN2WB7ZS15FI27EZJIOG9OVD,1450032709686,2,Tony's clubbing,lhl,From what Rob said we may conclude that they do not play Metal as well.,0,1,0,critical,exh1,0.36,47076,English,No,7,4
A1TVT4Y89RDEAW:31EUONYN2WB7ZS15FI27EZJIOG9OVD,1450032754163,3,Carl's party,hll,John did not spend much time outside.,1,0,0,test,test_true,0.78,44475,English,No,7,4
A1TVT4Y89RDEAW:31EUONYN2WB7ZS15FI27EZJIOG9OVD,1450032774987,4,Carl's party,hll,From what John said we may conclude that Carl did not dance passionately with Mary as well.,1,0,0,critical,exh1,0.76,20823,English,No,7,4
A1TVT4Y89RDEAW:31EUONYN2WB7ZS15FI27EZJIOG9OVD,1450032798330,5,Mrs Gibbs' worry,hhh,Mrs Gibbs did not accompany her husband when Cindy served him.,1,1,1,test,test_true,0.95,23342,English,No,7,4
A1TVT4Y89RDEAW:31EUONYN2WB7ZS15FI27EZJIOG9OVD,1450032820377,6,Mrs Gibbs' worry,hhh,From what Cindy said we may conclude that Mr Gibbs did not have a steak as well.,1,1,1,critical,exh2,0.32,22046,English,No,7,4
A1TVT4Y89RDEAW:31EUONYN2WB7ZS15FI27EZJIOG9OVD,1450032841809,7,Pete's accident,hhl,Pete's teacher saw him fall off the slide.,1,1,0,test,test_uncertain,0.71,21431,English,No,7,4
A1TVT4Y89RDEAW:31EUONYN2WB7ZS15FI27EZJIOG9OVD,1450032857920,8,Pete's accident,hhl,From what Pete's teacher said we may conclude that Pete did not break his arm as well.,1,1,0,critical,exh2,0.87,16111,English,No,7,4
A1TVT4Y89RDEAW:31EUONYN2WB7ZS15FI27EZJIOG9OVD,1450032890943,9,Leo's wife,hll,Leo is an avid golf player.,1,0,0,test,test_uncertain,0.76,33022,English,No,7,4
A1TVT4Y89RDEAW:31EUONYN2WB7ZS15FI27EZJIOG9OVD,1450032908407,10,Leo's wife,hll,From what Hans said we may conclude that the player in question didn't make a hole-in-one on the first hole as well,1,0,0,critical,exh2,0.8,17463,English,No,7,4
A1TVT4Y89RDEAW:31EUONYN2WB7ZS15FI27EZJIOG9OVD,1450032930093,11,Harold's pet,lll,Harold is single.,0,0,0,test,test_false,0,21686,English,No,7,4
A1TVT4Y89RDEAW:31EUONYN2WB7ZS15FI27EZJIOG9OVD,1450032989748,12,Harold's pet,lll,From what Richard said we may conclude that Harold did not buy a dog as well.,0,0,0,critical,exh1,0.93,59654,English,No,7,4
A1U5BE8XJRXKW3:3SBEHTYCWOBE70L7MYCM11RQUOSYIH,1450102950574,1,Leo's wife,hll,Leo is wealthy.,1,0,0,test,test_true,0.5,40642,English,No,8,3
A1U5BE8XJRXKW3:3SBEHTYCWOBE70L7MYCM11RQUOSYIH,1450102962341,2,Leo's wife,hll,From what Hans said we may conclude that the player in question didn't make a hole-in-one on the first hole as well,1,0,0,critical,exh2,0.12,11765,English,No,8,3
A1U5BE8XJRXKW3:3SBEHTYCWOBE70L7MYCM11RQUOSYIH,1450102976973,3,Harold's pet,lll,Harold is single.,0,0,0,test,test_false,0,14631,English,No,8,3
A1U5BE8XJRXKW3:3SBEHTYCWOBE70L7MYCM11RQUOSYIH,1450102988909,4,Harold's pet,lll,From what Richard said we may conclude that Harold did not buy a cat as well.,0,0,0,critical,exh2,0.79,11935,English,No,8,3
A1U5BE8XJRXKW3:3SBEHTYCWOBE70L7MYCM11RQUOSYIH,1450103003462,5,Pete's accident,hhl,Pete's teacher saw him fall off the slide.,1,1,0,test,test_uncertain,0.5,14552,English,No,8,3
A1U5BE8XJRXKW3:3SBEHTYCWOBE70L7MYCM11RQUOSYIH,1450103010302,6,Pete's accident,hhl,From what Pete's teacher said we may conclude that Pete did not break his leg as well.,1,1,0,critical,exh1,0.83,6838,English,No,8,3
A1U5BE8XJRXKW3:3SBEHTYCWOBE70L7MYCM11RQUOSYIH,1450103055029,7,Carl's party,hll,"John and Carl, the hosts, are a gay couple.",1,0,0,test,test_false,0,44727,English,No,8,3
A1U5BE8XJRXKW3:3SBEHTYCWOBE70L7MYCM11RQUOSYIH,1450103065926,8,Carl's party,hll,From what John said we may conclude that Carl did not dance passionately with Mary as well.,1,0,0,critical,exh1,0.48,10896,English,No,8,3
A1U5BE8XJRXKW3:3SBEHTYCWOBE70L7MYCM11RQUOSYIH,1450103100351,9,Tony's clubbing,lhl,Rob is a big fan of Techno music as well.,0,1,0,test,test_uncertain,0.5,34423,English,No,8,3
A1U5BE8XJRXKW3:3SBEHTYCWOBE70L7MYCM11RQUOSYIH,1450103105709,10,Tony's clubbing,lhl,From what Rob said we may conclude that they do not play Metal as well.,0,1,0,critical,exh1,0.86,5355,English,No,8,3
A1U5BE8XJRXKW3:3SBEHTYCWOBE70L7MYCM11RQUOSYIH,1450103127006,11,Lily's husband,lhl,Eric's doctor told him to stop drinking alcohol.,0,1,0,test,test_true,1,21296,English,No,8,3
A1U5BE8XJRXKW3:3SBEHTYCWOBE70L7MYCM11RQUOSYIH,1450103134999,12,Lily's husband,lhl,From what Bill said we may conclude that Eric did not drink whisky as well.,0,1,0,critical,exh2,0.63,7990,English,No,8,3
A1VPE05UDNFKGV:37QW5D2ZRHUOM8XLE6866Q9BA7B8SP,1450032772938,1,Mrs Gibbs' worry,hhh,Mrs Gibbs is worried about Cindy's health.,1,1,1,test,test_false,0.21,32026,English,NA,9,3
A1VPE05UDNFKGV:37QW5D2ZRHUOM8XLE6866Q9BA7B8SP,1450032783394,2,Mrs Gibbs' worry,hhh,From what Cindy said we may conclude that Mr Gibbs did not have a steak as well.,1,1,1,critical,exh2,0.26,10451,English,NA,9,3
A1VPE05UDNFKGV:37QW5D2ZRHUOM8XLE6866Q9BA7B8SP,1450032811567,3,Joshua's delay,llh,"Kevin, Cory and Joshua do not like to hang out with girls.",0,0,1,test,test_uncertain,0.34,28169,English,NA,9,3
A1VPE05UDNFKGV:37QW5D2ZRHUOM8XLE6866Q9BA7B8SP,1450032845708,4,Joshua's delay,llh,From what Cory said we may conclude that Joshua did not have to eat lunch as well.,0,0,1,critical,exh2,0.28,34135,English,NA,9,3
A1VPE05UDNFKGV:37QW5D2ZRHUOM8XLE6866Q9BA7B8SP,1450032879970,5,Brad's clothes,hlh,Brad is not happy about the fact that his friends make jokes about his shabby clothes.,1,0,1,test,test_true,0.94,34257,English,NA,9,3
A1VPE05UDNFKGV:37QW5D2ZRHUOM8XLE6866Q9BA7B8SP,1450032890233,6,Brad's clothes,hlh,From what Gina said we may conclude that Brad did not buy a sweater as well.,1,0,1,critical,exh2,0.37,10257,English,NA,9,3
A1VPE05UDNFKGV:37QW5D2ZRHUOM8XLE6866Q9BA7B8SP,1450032914255,7,Gigi's exams,hlh,Gigi aspires to a career in science.,1,0,1,test,test_uncertain,0.33,24017,English,NA,9,3
A1VPE05UDNFKGV:37QW5D2ZRHUOM8XLE6866Q9BA7B8SP,1450032938784,8,Gigi's exams,hlh,From what Carrie said we may conclude that Gigi did not pass her Chemistry exam as well.,1,0,1,critical,exh1,0.4,24524,English,NA,9,3
A1VPE05UDNFKGV:37QW5D2ZRHUOM8XLE6866Q9BA7B8SP,1450032971477,9,Mrs Sanders' son,hhl,Ted is Mrs Sanders' husband.,1,1,0,test,test_false,0,32690,English,NA,9,3
A1VPE05UDNFKGV:37QW5D2ZRHUOM8XLE6866Q9BA7B8SP,1450032984592,10,Mrs Sanders' son,hhl,From what Mrs Sanders said we may conclude that Ted did not have pasta as well.,1,1,0,critical,exh1,0.36,13109,English,NA,9,3
A1VPE05UDNFKGV:37QW5D2ZRHUOM8XLE6866Q9BA7B8SP,1450033019139,11,Gerald's graduation,llh,Gerald is friends with both Nico and Rick.,0,0,1,test,test_true,0.98,34542,English,NA,9,3
A1VPE05UDNFKGV:37QW5D2ZRHUOM8XLE6866Q9BA7B8SP,1450033026726,12,Gerald's graduation,llh,From what Nico said we may conclude that Gerald's father did not attend the ceremony as well.,0,0,1,critical,exh1,0.34,7581,English,NA,9,3
A1WDUICI1FG9F:3MX2NQ3YCA2DV70IAI7QTEGCNWT5X9,1450102891875,1,Gerald's graduation,llh,Gerald is friends with both Nico and Rick.,0,0,1,test,test_true,1,13423,English,NA,9,3
A1WDUICI1FG9F:3MX2NQ3YCA2DV70IAI7QTEGCNWT5X9,1450102899480,2,Gerald's graduation,llh,From what Nico said we may conclude that Gerald's mother did not attend the ceremony as well.,0,0,1,critical,exh2,0.28,7604,English,NA,9,3
A1WDUICI1FG9F:3MX2NQ3YCA2DV70IAI7QTEGCNWT5X9,1450102909108,3,Harold's pet,lll,Harold's girlfriend gave in because Harold kept nagging her about wanting a pet.,0,0,0,test,test_uncertain,0.71,9626,English,NA,9,3
A1WDUICI1FG9F:3MX2NQ3YCA2DV70IAI7QTEGCNWT5X9,1450102913659,4,Harold's pet,lll,From what Richard said we may conclude that Harold did not buy a dog as well.,0,0,0,critical,exh1,0.73,4549,English,NA,9,3
A1WDUICI1FG9F:3MX2NQ3YCA2DV70IAI7QTEGCNWT5X9,1450102934985,5,Carl's party,hll,Carl's wife liked the music very much.,1,0,0,test,test_uncertain,0.49,21324,English,NA,9,3
A1WDUICI1FG9F:3MX2NQ3YCA2DV70IAI7QTEGCNWT5X9,1450102940788,6,Carl's party,hll,From what John said we may conclude that Carl did not dance passionately with Mary as well.,1,0,0,critical,exh1,0.71,5800,English,NA,9,3
A1WDUICI1FG9F:3MX2NQ3YCA2DV70IAI7QTEGCNWT5X9,1450102955529,7,Brad's clothes,hlh,Brad is not happy about the fact that his friends make jokes about his shabby clothes.,1,0,1,test,test_true,1,14741,English,NA,9,3
A1WDUICI1FG9F:3MX2NQ3YCA2DV70IAI7QTEGCNWT5X9,1450102961671,8,Brad's clothes,hlh,From what Gina said we may conclude that Brad did not buy a sweater as well.,1,0,1,critical,exh2,0.51,6140,English,NA,9,3
A1WDUICI1FG9F:3MX2NQ3YCA2DV70IAI7QTEGCNWT5X9,1450102971004,9,Pete's accident,hhl,Pete was injured while playing in the garden.,1,1,0,test,test_false,0,9332,English,NA,9,3
A1WDUICI1FG9F:3MX2NQ3YCA2DV70IAI7QTEGCNWT5X9,1450102975035,10,Pete's accident,hhl,From what Pete's teacher said we may conclude that Pete did not break his arm as well.,1,1,0,critical,exh2,0.72,4030,English,NA,9,3
A1WDUICI1FG9F:3MX2NQ3YCA2DV70IAI7QTEGCNWT5X9,1450102990940,11,Joshua's delay,llh,"Kevin, Cory and Joshua are brothers.",0,0,1,test,test_false,0.25,15904,English,NA,9,3
A1WDUICI1FG9F:3MX2NQ3YCA2DV70IAI7QTEGCNWT5X9,1450102997771,12,Joshua's delay,llh,From what Cory said we may conclude that Joshua did not have to do his homework as well.,0,0,1,critical,exh1,0.23,6829,English,NA,9,3
A1WT1SR4ZGR14G:3TU5ZICBRE9C9SI8M2J1BQUASJ6Q8Y,1450102901363,1,Brad's clothes,hlh,Gina and Mandy accompanied Brad on his shopping trip.,1,0,1,test,test_false,0.3,23027,English,NA,8,8
A1WT1SR4ZGR14G:3TU5ZICBRE9C9SI8M2J1BQUASJ6Q8Y,1450102907770,2,Brad's clothes,hlh,From what Gina said we may conclude that Brad did not buy pair of jeans as well.,1,0,1,critical,exh1,0.86,6406,English,NA,8,8
A1WT1SR4ZGR14G:3TU5ZICBRE9C9SI8M2J1BQUASJ6Q8Y,1450102925174,3,Leo's wife,hll,Leo is an avid golf player.,1,0,0,test,test_uncertain,0.2,17404,English,NA,8,8
A1WT1SR4ZGR14G:3TU5ZICBRE9C9SI8M2J1BQUASJ6Q8Y,1450102942777,4,Leo's wife,hll,From what Hans said we may conclude that the player in question didn't make a hole-in-one on the first hole as well,1,0,0,critical,exh2,0.17,17603,English,NA,8,8
A1WT1SR4ZGR14G:3TU5ZICBRE9C9SI8M2J1BQUASJ6Q8Y,1450102961733,5,Mrs Sanders' son,hhl,The teacher is trying to find out who queued up twice.,1,1,0,test,test_true,0.02,18955,English,NA,8,8
A1WT1SR4ZGR14G:3TU5ZICBRE9C9SI8M2J1BQUASJ6Q8Y,1450102966232,6,Mrs Sanders' son,hhl,From what Mrs Sanders said we may conclude that Ted did not have pizza as well.,1,1,0,critical,exh2,0.94,4498,English,NA,8,8
A1WT1SR4ZGR14G:3TU5ZICBRE9C9SI8M2J1BQUASJ6Q8Y,1450102979830,7,Chloe's holiday,lhh,"Chloe forgot about bringing some beach towels, too.",0,1,1,test,test_uncertain,0.19,13597,English,NA,8,8
A1WT1SR4ZGR14G:3TU5ZICBRE9C9SI8M2J1BQUASJ6Q8Y,1450102987377,8,Chloe's holiday,lhh,From what Chloe said we may conclude that Susan did not bring some extra suntan lotion as well.,0,1,1,critical,exh2,0.97,7546,English,NA,8,8
A1WT1SR4ZGR14G:3TU5ZICBRE9C9SI8M2J1BQUASJ6Q8Y,1450102994059,9,Danny's racket,hhh,Alex needs to buy some equipment before he can play squash with Danny.,1,1,1,test,test_true,0.09,6679,English,NA,8,8
A1WT1SR4ZGR14G:3TU5ZICBRE9C9SI8M2J1BQUASJ6Q8Y,1450103017824,10,Danny's racket,hhh,From what Alex's girlfriend said we may conclude that Alex did not buy a pair of shoes as well.,1,1,1,critical,exh1,0.93,23764,English,NA,8,8
A1WT1SR4ZGR14G:3TU5ZICBRE9C9SI8M2J1BQUASJ6Q8Y,1450103034454,11,Gerald's graduation,llh,Nico finally graduated after studying for a long time.,0,0,1,test,test_false,0.05,16630,English,NA,8,8
A1WT1SR4ZGR14G:3TU5ZICBRE9C9SI8M2J1BQUASJ6Q8Y,1450103040278,12,Gerald's graduation,llh,From what Nico said we may conclude that Gerald's father did not attend the ceremony as well.,0,0,1,critical,exh1,0.79,5823,English,NA,8,8
A1ZF2GZ2ZRV8OY:33PPO7FECWNB9PQGQ2P8OGHPC0MIDT,1450106412248,1,Brad's clothes,hlh,Gina and Mandy accompanied Brad on his shopping trip.,1,0,1,test,test_false,0.01,13528,English,No thanks.,8,2
A1ZF2GZ2ZRV8OY:33PPO7FECWNB9PQGQ2P8OGHPC0MIDT,1450106423794,2,Brad's clothes,hlh,From what Gina said we may conclude that Brad did not buy pair of jeans as well.,1,0,1,critical,exh1,0.66,11541,English,No thanks.,8,2
A1ZF2GZ2ZRV8OY:33PPO7FECWNB9PQGQ2P8OGHPC0MIDT,1450106453128,3,Mrs Sanders' son,hhl,Mrs Sanders had pasta for lunch yesterday.,1,1,0,test,test_uncertain,0.5,29329,English,No thanks.,8,2
A1ZF2GZ2ZRV8OY:33PPO7FECWNB9PQGQ2P8OGHPC0MIDT,1450106464227,4,Mrs Sanders' son,hhl,From what Mrs Sanders said we may conclude that Ted did not have pizza as well.,1,1,0,critical,exh2,0.7,11095,English,No thanks.,8,2
A1ZF2GZ2ZRV8OY:33PPO7FECWNB9PQGQ2P8OGHPC0MIDT,1450106493327,5,Tony's clubbing,lhl,Techno is quite different from Jazz and from Metal.,0,1,0,test,test_true,0.93,29096,English,No thanks.,8,2
A1ZF2GZ2ZRV8OY:33PPO7FECWNB9PQGQ2P8OGHPC0MIDT,1450106498726,6,Tony's clubbing,lhl,From what Rob said we may conclude that they do not play Jazz as well.,0,1,0,critical,exh2,0.75,5396,English,No thanks.,8,2
A1ZF2GZ2ZRV8OY:33PPO7FECWNB9PQGQ2P8OGHPC0MIDT,1450106519183,7,Gerald's graduation,llh,Nico finally graduated after studying for a long time.,0,0,1,test,test_false,0.5,20454,English,No thanks.,8,2
A1ZF2GZ2ZRV8OY:33PPO7FECWNB9PQGQ2P8OGHPC0MIDT,1450106528534,8,Gerald's graduation,llh,From what Nico said we may conclude that Gerald's father did not attend the ceremony as well.,0,0,1,critical,exh1,0.74,9347,English,No thanks.,8,2
A1ZF2GZ2ZRV8OY:33PPO7FECWNB9PQGQ2P8OGHPC0MIDT,1450106543300,9,Pete's accident,hhl,Pete's mother was not there when he fell of the slide.,1,1,0,test,test_true,1,14762,English,No thanks.,8,2
A1ZF2GZ2ZRV8OY:33PPO7FECWNB9PQGQ2P8OGHPC0MIDT,1450106548175,10,Pete's accident,hhl,From what Pete's teacher said we may conclude that Pete did not break his arm as well.,1,1,0,critical,exh2,0.82,4872,English,No thanks.,8,2
A1ZF2GZ2ZRV8OY:33PPO7FECWNB9PQGQ2P8OGHPC0MIDT,1450106565939,11,Chloe's holiday,lhh,"Chloe forgot about bringing some beach towels, too.",0,1,1,test,test_uncertain,0.22,17761,English,No thanks.,8,2
A1ZF2GZ2ZRV8OY:33PPO7FECWNB9PQGQ2P8OGHPC0MIDT,1450106573616,12,Chloe's holiday,lhh,From what Chloe said we may conclude that Amelia did not bring some extra suntan lotion as well.,0,1,1,critical,exh1,0.76,7672,English,No thanks.,8,2
A20NRQYMT262K5:33PPO7FECWNB9PQGQ2P8OGHPC0NDIP,1450104278660,1,Harold's pet,lll,Harold is single.,0,0,0,test,test_false,0,30316,english,NA,8,2
A20NRQYMT262K5:33PPO7FECWNB9PQGQ2P8OGHPC0NDIP,1450104286861,2,Harold's pet,lll,From what Richard said we may conclude that Harold did not buy a dog as well.,0,0,0,critical,exh1,1,8201,english,NA,8,2
A20NRQYMT262K5:33PPO7FECWNB9PQGQ2P8OGHPC0NDIP,1450104312301,3,Chloe's holiday,lhh,"Chloe forgot about bringing some beach towels, too.",0,1,1,test,test_uncertain,0.15,25425,english,NA,8,2
A20NRQYMT262K5:33PPO7FECWNB9PQGQ2P8OGHPC0NDIP,1450104326048,4,Chloe's holiday,lhh,From what Chloe said we may conclude that Amelia did not bring some extra suntan lotion as well.,0,1,1,critical,exh1,0.19,13747,english,NA,8,2
A20NRQYMT262K5:33PPO7FECWNB9PQGQ2P8OGHPC0NDIP,1450104346856,5,Tony's clubbing,lhl,Techno is quite different from Jazz and from Metal.,0,1,0,test,test_true,1,20808,english,NA,8,2
A20NRQYMT262K5:33PPO7FECWNB9PQGQ2P8OGHPC0NDIP,1450104354408,6,Tony's clubbing,lhl,From what Rob said we may conclude that they do not play Jazz as well.,0,1,0,critical,exh2,0.89,7552,english,NA,8,2
A20NRQYMT262K5:33PPO7FECWNB9PQGQ2P8OGHPC0NDIP,1450104383571,7,Jimmy's trip,lll,Jimmy had told his friends about his plans to visit New York City before.,0,0,0,test,test_uncertain,0.19,29163,english,NA,8,2
A20NRQYMT262K5:33PPO7FECWNB9PQGQ2P8OGHPC0NDIP,1450104390802,8,Jimmy's trip,lll,From what the brother said we may conclude that Jimmy did not visit the Empire State Building as well.,0,0,0,critical,exh1,0.81,7230,english,NA,8,2
A20NRQYMT262K5:33PPO7FECWNB9PQGQ2P8OGHPC0NDIP,1450104406486,9,Lily's husband,lhl,Eric and Lily went to a bar together last night.,0,1,0,test,test_false,0,15684,english,NA,8,2
A20NRQYMT262K5:33PPO7FECWNB9PQGQ2P8OGHPC0NDIP,1450104418229,10,Lily's husband,lhl,From what Bill said we may conclude that Eric did not drink whisky as well.,0,1,0,critical,exh2,0.15,11743,english,NA,8,2
A20NRQYMT262K5:33PPO7FECWNB9PQGQ2P8OGHPC0NDIP,1450104440728,11,Joshua's delay,llh,Kevin and Cory expected Joshua to arrive earlier.,0,0,1,test,test_true,0.82,22499,english,NA,8,2
A20NRQYMT262K5:33PPO7FECWNB9PQGQ2P8OGHPC0NDIP,1450104446523,12,Joshua's delay,llh,From what Cory said we may conclude that Joshua did not have to eat lunch as well.,0,0,1,critical,exh2,0.18,5795,english,NA,8,2
A21SF3IKIZB0VN:3IGI0VL648SURNSWDRGG4IP52DNNOB,1450102964977,1,Mrs Gibbs' worry,hhh,Mrs Gibbs is worried about Cindy's health.,1,1,1,test,test_false,0,25132,English,This was fun,10,2
A21SF3IKIZB0VN:3IGI0VL648SURNSWDRGG4IP52DNNOB,1450102990270,2,Mrs Gibbs' worry,hhh,From what Cindy said we may conclude that Mr Gibbs did not have a steak as well.,1,1,1,critical,exh2,0.21,25292,English,This was fun,10,2
A21SF3IKIZB0VN:3IGI0VL648SURNSWDRGG4IP52DNNOB,1450103015510,3,Lily's husband,lhl,Eric's doctor told him to stop drinking alcohol.,0,1,0,test,test_true,1,25239,English,This was fun,10,2
A21SF3IKIZB0VN:3IGI0VL648SURNSWDRGG4IP52DNNOB,1450103028043,4,Lily's husband,lhl,From what Bill said we may conclude that Eric did not drink vodka as well.,0,1,0,critical,exh1,0.43,12532,English,This was fun,10,2
A21SF3IKIZB0VN:3IGI0VL648SURNSWDRGG4IP52DNNOB,1450103089343,5,Carl's party,hll,Carl's wife liked the music very much.,1,0,0,test,test_uncertain,0.5,61298,English,This was fun,10,2
A21SF3IKIZB0VN:3IGI0VL648SURNSWDRGG4IP52DNNOB,1450103101855,6,Carl's party,hll,From what John said we may conclude that Carl did not dance passionately with Sue as well.,1,0,0,critical,exh2,0.24,12511,English,This was fun,10,2
A21SF3IKIZB0VN:3IGI0VL648SURNSWDRGG4IP52DNNOB,1450103131491,7,Jimmy's trip,lll,Jimmy went on a school trip to New York City.,0,0,0,test,test_false,0,29634,English,This was fun,10,2
A21SF3IKIZB0VN:3IGI0VL648SURNSWDRGG4IP52DNNOB,1450103162173,8,Jimmy's trip,lll,From what the brother said we may conclude that Jimmy did not visit the Empire State Building as well.,0,0,0,critical,exh1,0.84,30681,English,This was fun,10,2
A21SF3IKIZB0VN:3IGI0VL648SURNSWDRGG4IP52DNNOB,1450103183698,9,Gigi's exams,hlh,Gigi aspires to a career in science.,1,0,1,test,test_uncertain,0.88,21525,English,This was fun,10,2
A21SF3IKIZB0VN:3IGI0VL648SURNSWDRGG4IP52DNNOB,1450103195585,10,Gigi's exams,hlh,From what Carrie said we may conclude that Gigi did not pass her Chemistry exam as well.,1,0,1,critical,exh1,0.12,11886,English,This was fun,10,2
A21SF3IKIZB0VN:3IGI0VL648SURNSWDRGG4IP52DNNOB,1450103214988,11,Pete's accident,hhl,Pete's mother was not there when he fell of the slide.,1,1,0,test,test_true,1,19401,English,This was fun,10,2
A21SF3IKIZB0VN:3IGI0VL648SURNSWDRGG4IP52DNNOB,1450103225108,12,Pete's accident,hhl,From what Pete's teacher said we may conclude that Pete did not break his arm as well.,1,1,0,critical,exh2,0.29,10120,English,This was fun,10,2
A2250L5WNYCTE1:3L0KT67Y8FO31EO3RA6053XD3MUSY3,1450102962394,1,Harold's pet,lll,Harold's girlfriend didn't want a pet in her house before.,0,0,0,test,test_true,0.75,10390,English,none,8,6
A2250L5WNYCTE1:3L0KT67Y8FO31EO3RA6053XD3MUSY3,1450102974912,2,Harold's pet,lll,From what Richard said we may conclude that Harold did not buy a dog as well.,0,0,0,critical,exh1,0.54,12506,English,none,8,6
A2250L5WNYCTE1:3L0KT67Y8FO31EO3RA6053XD3MUSY3,1450102985264,3,Gerald's graduation,llh,Gerald took almost ten years to graduate.,0,0,1,test,test_uncertain,0.6,10348,English,none,8,6
A2250L5WNYCTE1:3L0KT67Y8FO31EO3RA6053XD3MUSY3,1450103009905,4,Gerald's graduation,llh,From what Nico said we may conclude that Gerald's mother did not attend the ceremony as well.,0,0,1,critical,exh2,0.58,24636,English,none,8,6
A2250L5WNYCTE1:3L0KT67Y8FO31EO3RA6053XD3MUSY3,1450103037230,5,Joshua's delay,llh,Kevin and Cory expected Joshua to arrive earlier.,0,0,1,test,test_true,0.57,27320,English,none,8,6
A2250L5WNYCTE1:3L0KT67Y8FO31EO3RA6053XD3MUSY3,1450103049629,6,Joshua's delay,llh,From what Cory said we may conclude that Joshua did not have to eat lunch as well.,0,0,1,critical,exh2,0.23,12395,English,none,8,6
A2250L5WNYCTE1:3L0KT67Y8FO31EO3RA6053XD3MUSY3,1450103055132,7,Chloe's holiday,lhh,Chloe went on holidays with a big group of her friends.,0,1,1,test,test_false,0.38,5496,English,none,8,6
A2250L5WNYCTE1:3L0KT67Y8FO31EO3RA6053XD3MUSY3,1450103078153,8,Chloe's holiday,lhh,From what Chloe said we may conclude that Amelia did not bring some extra suntan lotion as well.,0,1,1,critical,exh1,0.72,23016,English,none,8,6
A2250L5WNYCTE1:3L0KT67Y8FO31EO3RA6053XD3MUSY3,1450103084828,9,Brad's clothes,hlh,Gina and Mandy accompanied Brad on his shopping trip.,1,0,1,test,test_false,0.19,6670,English,none,8,6
A2250L5WNYCTE1:3L0KT67Y8FO31EO3RA6053XD3MUSY3,1450103089046,10,Brad's clothes,hlh,From what Gina said we may conclude that Brad did not buy a sweater as well.,1,0,1,critical,exh2,0.63,4215,English,none,8,6
A2250L5WNYCTE1:3L0KT67Y8FO31EO3RA6053XD3MUSY3,1450103104366,11,Mrs Gibbs' worry,hhh,Cindy is secretly in love with Mrs Gibbs' husband.,1,1,1,test,test_uncertain,0.29,15317,English,none,8,6
A2250L5WNYCTE1:3L0KT67Y8FO31EO3RA6053XD3MUSY3,1450103132560,12,Mrs Gibbs' worry,hhh,From what Cindy said we may conclude that Mr Gibbs did not have a beer as well.,1,1,1,critical,exh1,0.66,28188,English,none,8,6
A22GVUGZ3FI2CY:3570Y55XZQR0B9FCWACJGPEAFB0YGP,1450113716366,1,Lily's husband,lhl,Eric has a problem with his liver for which he has to stop drinking alcohol.,0,1,0,test,test_uncertain,0.65,2976,english,NA,10,0
A22GVUGZ3FI2CY:3570Y55XZQR0B9FCWACJGPEAFB0YGP,1450113718854,2,Lily's husband,lhl,From what Bill said we may conclude that Eric did not drink vodka as well.,0,1,0,critical,exh1,0.72,2485,english,NA,10,0
A22GVUGZ3FI2CY:3570Y55XZQR0B9FCWACJGPEAFB0YGP,1450113720133,3,Harold's pet,lll,Harold's girlfriend didn't want a pet in her house before.,0,0,0,test,test_true,0.45,1278,english,NA,10,0
A22GVUGZ3FI2CY:3570Y55XZQR0B9FCWACJGPEAFB0YGP,1450113721653,4,Harold's pet,lll,From what Richard said we may conclude that Harold did not buy a cat as well.,0,0,0,critical,exh2,0.71,1518,english,NA,10,0
A22GVUGZ3FI2CY:3570Y55XZQR0B9FCWACJGPEAFB0YGP,1450113728501,5,Mrs Sanders' son,hhl,Ted is Mrs Sanders' husband.,1,1,0,test,test_false,0.63,6847,english,NA,10,0
A22GVUGZ3FI2CY:3570Y55XZQR0B9FCWACJGPEAFB0YGP,1450113730725,6,Mrs Sanders' son,hhl,From what Mrs Sanders said we may conclude that Ted did not have pizza as well.,1,1,0,critical,exh2,0.36,2222,english,NA,10,0
A22GVUGZ3FI2CY:3570Y55XZQR0B9FCWACJGPEAFB0YGP,1450113734333,7,Chloe's holiday,lhh,Chloe recently got back from holidays.,0,1,1,test,test_true,0.68,3606,english,NA,10,0
A22GVUGZ3FI2CY:3570Y55XZQR0B9FCWACJGPEAFB0YGP,1450113735805,8,Chloe's holiday,lhh,From what Chloe said we may conclude that Amelia did not bring some extra suntan lotion as well.,0,1,1,critical,exh1,0.44,1470,english,NA,10,0
A22GVUGZ3FI2CY:3570Y55XZQR0B9FCWACJGPEAFB0YGP,1450113737301,9,Mrs Gibbs' worry,hhh,Mrs Gibbs is worried about Cindy's health.,1,1,1,test,test_false,0.72,1494,english,NA,10,0
A22GVUGZ3FI2CY:3570Y55XZQR0B9FCWACJGPEAFB0YGP,1450113738885,10,Mrs Gibbs' worry,hhh,From what Cindy said we may conclude that Mr Gibbs did not have a beer as well.,1,1,1,critical,exh1,0.29,1582,english,NA,10,0
A22GVUGZ3FI2CY:3570Y55XZQR0B9FCWACJGPEAFB0YGP,1450113740205,11,Pete's accident,hhl,Pete's teacher saw him fall off the slide.,1,1,0,test,test_uncertain,0.76,1318,english,NA,10,0
A22GVUGZ3FI2CY:3570Y55XZQR0B9FCWACJGPEAFB0YGP,1450113741501,12,Pete's accident,hhl,From what Pete's teacher said we may conclude that Pete did not break his arm as well.,1,1,0,critical,exh2,0.33,1294,english,NA,10,0
A23URJQ2DDWXBO:3M1CVSFP61DQSGBNJ03F7H05I76QA2,1450103014361,1,Brad's clothes,hlh,Brad is not happy about the fact that his friends make jokes about his shabby clothes.,1,0,1,test,test_true,0.44,51999,English,NA,6,7
A23URJQ2DDWXBO:3M1CVSFP61DQSGBNJ03F7H05I76QA2,1450103038160,2,Brad's clothes,hlh,From what Gina said we may conclude that Brad did not buy pair of jeans as well.,1,0,1,critical,exh1,0.25,23799,English,NA,6,7
A23URJQ2DDWXBO:3M1CVSFP61DQSGBNJ03F7H05I76QA2,1450103067568,3,Gigi's exams,hlh,Gigi hired a private tutor to help her with her Biology and Chemistry exams.,1,0,1,test,test_false,1,29407,English,NA,6,7
A23URJQ2DDWXBO:3M1CVSFP61DQSGBNJ03F7H05I76QA2,1450103083433,4,Gigi's exams,hlh,From what Carrie said we may conclude that Gigi did not pass her Physics exam as well.,1,0,1,critical,exh2,0.28,15864,English,NA,6,7
A23URJQ2DDWXBO:3M1CVSFP61DQSGBNJ03F7H05I76QA2,1450103142649,5,Mrs Sanders' son,hhl,The teacher is trying to find out who queued up twice.,1,1,0,test,test_true,0.35,59216,English,NA,6,7
A23URJQ2DDWXBO:3M1CVSFP61DQSGBNJ03F7H05I76QA2,1450103154769,6,Mrs Sanders' son,hhl,From what Mrs Sanders said we may conclude that Ted did not have pasta as well.,1,1,0,critical,exh1,0.37,12119,English,NA,6,7
A23URJQ2DDWXBO:3M1CVSFP61DQSGBNJ03F7H05I76QA2,1450103192969,7,Carl's party,hll,Carl's wife liked the music very much.,1,0,0,test,test_uncertain,0.56,38200,English,NA,6,7
A23URJQ2DDWXBO:3M1CVSFP61DQSGBNJ03F7H05I76QA2,1450103203613,8,Carl's party,hll,From what John said we may conclude that Carl did not dance passionately with Mary as well.,1,0,0,critical,exh1,0.38,10643,English,NA,6,7
A23URJQ2DDWXBO:3M1CVSFP61DQSGBNJ03F7H05I76QA2,1450103233924,9,Joshua's delay,llh,"Kevin, Cory and Joshua do not like to hang out with girls.",0,0,1,test,test_uncertain,0.46,30310,English,NA,6,7
A23URJQ2DDWXBO:3M1CVSFP61DQSGBNJ03F7H05I76QA2,1450103244908,10,Joshua's delay,llh,From what Cory said we may conclude that Joshua did not have to eat lunch as well.,0,0,1,critical,exh2,0.42,10983,English,NA,6,7
A23URJQ2DDWXBO:3M1CVSFP61DQSGBNJ03F7H05I76QA2,1450103270707,11,Leo's wife,hll,Leo is sponsoring a tennis tournament.,1,0,0,test,test_false,0,25798,English,NA,6,7
A23URJQ2DDWXBO:3M1CVSFP61DQSGBNJ03F7H05I76QA2,1450103291587,12,Leo's wife,hll,From what Hans said we may conclude that the player in question didn't make a hole-in-one on the first hole as well,1,0,0,critical,exh2,0.39,20880,English,NA,6,7
A25D66AC4QUW2U:3NVC2EB65R7ZHX3O1V5ZXVP1B6G3Y7,1450032353375,1,Brad's clothes,hlh,Gina and Mandy accompanied Brad on his shopping trip.,1,0,1,test,test_false,0,99499,English,NA,8,5
A25D66AC4QUW2U:3NVC2EB65R7ZHX3O1V5ZXVP1B6G3Y7,1450032394186,2,Brad's clothes,hlh,From what Gina said we may conclude that Brad did not buy a sweater as well.,1,0,1,critical,exh2,0.03,40800,English,NA,8,5
A25D66AC4QUW2U:3NVC2EB65R7ZHX3O1V5ZXVP1B6G3Y7,1450032414975,3,Gerald's graduation,llh,Gerald is friends with both Nico and Rick.,0,0,1,test,test_true,1,20786,English,NA,8,5
A25D66AC4QUW2U:3NVC2EB65R7ZHX3O1V5ZXVP1B6G3Y7,1450032432305,4,Gerald's graduation,llh,From what Nico said we may conclude that Gerald's father did not attend the ceremony as well.,0,0,1,critical,exh1,0.98,17326,English,NA,8,5
A25D66AC4QUW2U:3NVC2EB65R7ZHX3O1V5ZXVP1B6G3Y7,1450032465327,5,Gigi's exams,hlh,Gigi studied hard to pass her exams.,1,0,1,test,test_true,1,33021,English,NA,8,5
A25D66AC4QUW2U:3NVC2EB65R7ZHX3O1V5ZXVP1B6G3Y7,1450032482626,6,Gigi's exams,hlh,From what Carrie said we may conclude that Gigi did not pass her Chemistry exam as well.,1,0,1,critical,exh1,0.03,17295,English,NA,8,5
A25D66AC4QUW2U:3NVC2EB65R7ZHX3O1V5ZXVP1B6G3Y7,1450032538504,7,Tony's clubbing,lhl,Rob is a big fan of Techno music as well.,0,1,0,test,test_uncertain,0.17,55875,English,NA,8,5
A25D66AC4QUW2U:3NVC2EB65R7ZHX3O1V5ZXVP1B6G3Y7,1450032555601,8,Tony's clubbing,lhl,From what Rob said we may conclude that they do not play Jazz as well.,0,1,0,critical,exh2,0.07,17094,English,NA,8,5
A25D66AC4QUW2U:3NVC2EB65R7ZHX3O1V5ZXVP1B6G3Y7,1450032572385,9,Pete's accident,hhl,Pete was injured while playing in the garden.,1,1,0,test,test_false,0,16782,English,NA,8,5
A25D66AC4QUW2U:3NVC2EB65R7ZHX3O1V5ZXVP1B6G3Y7,1450032593958,10,Pete's accident,hhl,From what Pete's teacher said we may conclude that Pete did not break his arm as well.,1,1,0,critical,exh2,1,21571,English,NA,8,5
A25D66AC4QUW2U:3NVC2EB65R7ZHX3O1V5ZXVP1B6G3Y7,1450032636176,11,Jimmy's trip,lll,Jimmy had told his friends about his plans to visit New York City before.,0,0,0,test,test_uncertain,0,42214,English,NA,8,5
A25D66AC4QUW2U:3NVC2EB65R7ZHX3O1V5ZXVP1B6G3Y7,1450032657158,12,Jimmy's trip,lll,From what the brother said we may conclude that Jimmy did not visit the Empire State Building as well.,0,0,0,critical,exh1,0.5,20980,English,NA,8,5
A25KGFC9X1OAOJ:3H7XDTSHKDZWM4KCH9UVVSTU43KGWS,1450032300890,1,Mrs Gibbs' worry,hhh,Cindy is secretly in love with Mrs Gibbs' husband.,1,1,1,test,test_uncertain,0.34,25392,English,NA,8,2
A25KGFC9X1OAOJ:3H7XDTSHKDZWM4KCH9UVVSTU43KGWS,1450032308885,2,Mrs Gibbs' worry,hhh,From what Cindy said we may conclude that Mr Gibbs did not have a steak as well.,1,1,1,critical,exh2,0.49,7995,English,NA,8,2
A25KGFC9X1OAOJ:3H7XDTSHKDZWM4KCH9UVVSTU43KGWS,1450032334533,3,Lily's husband,lhl,Eric has a problem with his liver for which he has to stop drinking alcohol.,0,1,0,test,test_uncertain,0.6,25648,English,NA,8,2
A25KGFC9X1OAOJ:3H7XDTSHKDZWM4KCH9UVVSTU43KGWS,1450032344405,4,Lily's husband,lhl,From what Bill said we may conclude that Eric did not drink vodka as well.,0,1,0,critical,exh1,0.75,9871,English,NA,8,2
A25KGFC9X1OAOJ:3H7XDTSHKDZWM4KCH9UVVSTU43KGWS,1450032367485,5,Danny's racket,hhh,Alex needs to buy some equipment before he can play squash with Danny.,1,1,1,test,test_true,0.9,23080,English,NA,8,2
