id	itemTime	trialNumber	name	type	question	relevance	competence	prior	condition	answer	RT	language	comments	engagement	difficulty
A10DCC73F2CKHC:3L0KT67Y8FO31EO3RA6053XD5KLYSY	1454961773057	1	tail-donkey blindfold	hhl	Grace and Oliver live in the same apartment.	1	1	0	test_uncertain	0.41	29369	english	NA	10	3
A10DCC73F2CKHC:3L0KT67Y8FO31EO3RA6053XD5KLYSY	1454961780960	2	tail-donkey blindfold	hhl	It is important for Grace to know whether she put all of the tails in the right place.	1	1	0	rel	0.95	7902	english	NA	10	3
A10DCC73F2CKHC:3L0KT67Y8FO31EO3RA6053XD5KLYSY	1454961795591	3	rotten tomatoes	hll	Gilbert is the cleaning lady.	1	0	0	test_false	0	14630	english	NA	10	3
A10DCC73F2CKHC:3L0KT67Y8FO31EO3RA6053XD5KLYSY	1454961806351	4	rotten tomatoes	hll	All of the tomatoes are rotten.	1	0	0	prior	0.5	10759	english	NA	10	3
A10DCC73F2CKHC:3L0KT67Y8FO31EO3RA6053XD5KLYSY	1454961828342	5	M&M's in the hospital	lhh	Aunt Bethany travelled a long distance to visit Henry in the hospital.	0	1	1	test_uncertain	0.5	21991	english	NA	10	3
A10DCC73F2CKHC:3L0KT67Y8FO31EO3RA6053XD5KLYSY	1454961841542	6	M&M's in the hospital	lhh	Henry knows whether he liked all of the M&Ms.	0	1	1	comp	0.93	13200	english	NA	10	3
A10DCC73F2CKHC:3L0KT67Y8FO31EO3RA6053XD5KLYSY	1454961862044	7	hotel check	hhh	Mr Jaynes is the manager of the San Diego hotel.	1	1	1	test_false	0.98	20501	english	NA	10	3
A10DCC73F2CKHC:3L0KT67Y8FO31EO3RA6053XD5KLYSY	1454961869476	8	hotel check	hhh	From what Harry said we may conclude that not all of the rooms had working air conditioning.	1	1	1	imp	0.92	7431	english	NA	10	3
A10DCC73F2CKHC:3L0KT67Y8FO31EO3RA6053XD5KLYSY	1454961909107	9	Martha's cookies	llh	Emily really enjoys chocolate.	0	0	1	test_true	1	39630	english	NA	10	3
A10DCC73F2CKHC:3L0KT67Y8FO31EO3RA6053XD5KLYSY	1454961918619	10	Martha's cookies	llh	It is important for Martha's husband to know whether Emily ate all of the cookies.	0	0	1	rel	0.64	9511	english	NA	10	3
A10DCC73F2CKHC:3L0KT67Y8FO31EO3RA6053XD5KLYSY	1454961933529	11	emails from a broken laptop	lll	Kate has difficulties sending emails.	0	0	0	test_true	0.69	14909	english	NA	10	3
A10DCC73F2CKHC:3L0KT67Y8FO31EO3RA6053XD5KLYSY	1454961938985	12	emails from a broken laptop	lll	Joshua knows whether he received all of Kate's emails.	0	0	0	comp	0.24	5455	english	NA	10	3
A10DCC73F2CKHC:3L0KT67Y8FO31EO3RA6053XD5KLYSY	1454961976223	13	Swiss watch protoype testing	hlh	The company uses spare parts imported from Malaysia.	1	0	1	test_uncertain	0.24	37237	english	NA	10	3
A10DCC73F2CKHC:3L0KT67Y8FO31EO3RA6053XD5KLYSY	1454961984703	14	Swiss watch protoype testing	hlh	From what the apprentice said we may conclude that the prototype did not pass all of the tests scheduled for today.	1	0	1	imp	0.63	8479	english	NA	10	3
A10DCC73F2CKHC:3L0KT67Y8FO31EO3RA6053XD5KLYSY	1454961994263	15	underage drinking	lhl	The new laws on underage drinking are very strict.	0	1	0	test_true	1	9559	english	NA	10	3
A10DCC73F2CKHC:3L0KT67Y8FO31EO3RA6053XD5KLYSY	1454962001742	16	underage drinking	lhl	All of the patrons drinking alcohol are underage.	0	1	0	prior	0	7479	english	NA	10	3
A10DEO061A6L3O:3M0NZ3JDP262020XB0VBQZWNXUH5ZU	1454962877285	1	van Gogh exhibition	lhl	The van Gogh exhibition is an important event for the city.	0	1	0	test_true	0.65	23840	English	None	7	4
A10DEO061A6L3O:3M0NZ3JDP262020XB0VBQZWNXUH5ZU	1454962891155	2	van Gogh exhibition	lhl	From what the curator said we may conclude that not all of van Gogh's paintings are among the most valuable paintings in the world.	0	1	0	imp	0.88	13862	English	None	7	4
A10DEO061A6L3O:3M0NZ3JDP262020XB0VBQZWNXUH5ZU	1454962929292	3	gourmet desserts	lhh	Jeremy is madly in love with Claire.	0	0	1	test_uncertain	0.14	38127	English	None	7	4
A10DEO061A6L3O:3M0NZ3JDP262020XB0VBQZWNXUH5ZU	1454962939504	4	gourmet desserts	lhh	Claire knows whether all of their desserts are fantastic.	0	0	1	comp	0.19	10201	English	None	7	4
A10DEO061A6L3O:3M0NZ3JDP262020XB0VBQZWNXUH5ZU	1454962955816	5	stand-up comedy show	lll	Lennard is popular in Seattle.	0	0	0	test_true	0.84	16303	English	None	7	4
A10DEO061A6L3O:3M0NZ3JDP262020XB0VBQZWNXUH5ZU	1454962961842	6	stand-up comedy show	lll	It is important for Lennard's wife to know whether all of the people who came yesterday also came to today's show.	0	0	0	rel	0	6016	English	None	7	4
A10DEO061A6L3O:3M0NZ3JDP262020XB0VBQZWNXUH5ZU	1454962975227	7	tail-donkey blindfold	hhl	Grace and Oliver are playing charades.	1	1	0	test_false	0	13377	English	None	7	4
A10DEO061A6L3O:3M0NZ3JDP262020XB0VBQZWNXUH5ZU	1454962983242	8	tail-donkey blindfold	hhl	From what Oliver said we may conclude that Grace did not put all of the tails in the right place.	1	1	0	imp	0.96	8003	English	None	7	4
A10DEO061A6L3O:3M0NZ3JDP262020XB0VBQZWNXUH5ZU	1454963020859	9	Martha's cookies	llh	Martha is allergic to chocolate.	0	0	1	test_uncertain	0.5	37607	English	None	7	4
A10DEO061A6L3O:3M0NZ3JDP262020XB0VBQZWNXUH5ZU	1454963027186	10	Martha's cookies	llh	Martha knows whether Emily ate all of the cookies.	0	0	1	comp	0.23	6317	English	None	7	4
A10DEO061A6L3O:3M0NZ3JDP262020XB0VBQZWNXUH5ZU	1454963039960	11	schizophrenia talk	hll	Lucy's talk is unlikely to stir much commotion.	1	0	0	test_false	0.4	12764	English	None	7	4
A10DEO061A6L3O:3M0NZ3JDP262020XB0VBQZWNXUH5ZU	1454963046533	12	schizophrenia talk	hll	From what Jacob said we may conclude that not all of the people enjoyed Lucy's talk.	1	0	0	imp	0.73	6567	English	None	7	4
A10DEO061A6L3O:3M0NZ3JDP262020XB0VBQZWNXUH5ZU	1454963141599	13	Swiss watch protoype testing	hlh	The company uses spare parts imported from Malaysia.	1	0	1	test_uncertain	0.5	95061	English	None	7	4
A10DEO061A6L3O:3M0NZ3JDP262020XB0VBQZWNXUH5ZU	1454963152114	14	Swiss watch protoype testing	hlh	It is important for Mr Papenhauser to know whether the prototype passed all of the tests scheduled for today.	1	0	1	rel	0.79	10506	English	None	7	4
A10DEO061A6L3O:3M0NZ3JDP262020XB0VBQZWNXUH5ZU	1454963173192	15	hotel check	hhh	Harry will inspect the Los Angeles hotel next.	1	1	1	test_uncertain	0.64	21068	English	None	7	4
A10DEO061A6L3O:3M0NZ3JDP262020XB0VBQZWNXUH5ZU	1454963178563	16	hotel check	hhh	From what Harry said we may conclude that not all of the rooms had working air conditioning.	1	1	1	imp	0.93	5351	English	None	7	4
A11C9D55C41PB2:3BGYGHDBBYSKVUEY4AKZ5HJ4SCS22L	1454998254726	1	Martha's cookies	llh	Martha had dinner with a friend.	0	0	1	test_false	0.32	26193	English	Thanks for the work! :)	10	5
A11C9D55C41PB2:3BGYGHDBBYSKVUEY4AKZ5HJ4SCS22L	1454998264373	2	Martha's cookies	llh	From what Martha said we may conclude that Emily did not eat all of the cookies.	0	0	1	imp	0.9	9646	English	Thanks for the work! :)	10	5
A11C9D55C41PB2:3BGYGHDBBYSKVUEY4AKZ5HJ4SCS22L	1454998276886	3	underage drinking	lhl	The new laws on underage drinking are very strict.	0	1	0	test_true	0.98	12513	English	Thanks for the work! :)	10	5
A11C9D55C41PB2:3BGYGHDBBYSKVUEY4AKZ5HJ4SCS22L	1454998282975	4	underage drinking	lhl	All of the patrons drinking alcohol are underage.	0	1	0	prior	0.01	6088	English	Thanks for the work! :)	10	5
A11C9D55C41PB2:3BGYGHDBBYSKVUEY4AKZ5HJ4SCS22L	1454998293853	5	hotel check	hhh	Mr Jaynes is the manager of the San Diego hotel.	1	1	1	test_false	0.88	10878	English	Thanks for the work! :)	10	5
A11C9D55C41PB2:3BGYGHDBBYSKVUEY4AKZ5HJ4SCS22L	1454998301725	6	hotel check	hhh	Harry knows whether all of the rooms had working air conditioning.	1	1	1	comp	0.86	7872	English	Thanks for the work! :)	10	5
A11C9D55C41PB2:3BGYGHDBBYSKVUEY4AKZ5HJ4SCS22L	1454998326336	7	Swiss watch protoype testing	hlh	Testing of the prototype is finished.	1	0	1	test_false	0.07	24611	English	Thanks for the work! :)	10	5
A11C9D55C41PB2:3BGYGHDBBYSKVUEY4AKZ5HJ4SCS22L	1454998330542	8	Swiss watch protoype testing	hlh	It is important for Mr Papenhauser to know whether the prototype passed all of the tests scheduled for today.	1	0	1	rel	0.97	4206	English	Thanks for the work! :)	10	5
A11C9D55C41PB2:3BGYGHDBBYSKVUEY4AKZ5HJ4SCS22L	1454998346212	9	M&M's in the hospital	lhh	Aunt Bethany travelled a long distance to visit Henry in the hospital.	0	1	1	test_uncertain	0.65	15670	English	Thanks for the work! :)	10	5
A11C9D55C41PB2:3BGYGHDBBYSKVUEY4AKZ5HJ4SCS22L	1454998354062	10	M&M's in the hospital	lhh	Henry knows whether he liked all of the M&Ms.	0	1	1	comp	0.96	7850	English	Thanks for the work! :)	10	5
A11C9D55C41PB2:3BGYGHDBBYSKVUEY4AKZ5HJ4SCS22L	1454998368670	11	schizophrenia talk	hll	Jacob works as a psychologist.	1	0	0	test_true	0.91	14608	English	Thanks for the work! :)	10	5
A11C9D55C41PB2:3BGYGHDBBYSKVUEY4AKZ5HJ4SCS22L	1454998375628	12	schizophrenia talk	hll	From what Jacob said we may conclude that not all of the people enjoyed Lucy's talk.	1	0	0	imp	0.62	6958	English	Thanks for the work! :)	10	5
A11C9D55C41PB2:3BGYGHDBBYSKVUEY4AKZ5HJ4SCS22L	1454998388271	13	stand-up comedy show	lll	Lennard is a salesman for karaoke machines.	0	0	0	test_false	0	12643	English	Thanks for the work! :)	10	5
A11C9D55C41PB2:3BGYGHDBBYSKVUEY4AKZ5HJ4SCS22L	1454998396255	14	stand-up comedy show	lll	All of the people who came yesterday also came to today's show.	0	0	0	prior	0.25	7983	English	Thanks for the work! :)	10	5
A11C9D55C41PB2:3BGYGHDBBYSKVUEY4AKZ5HJ4SCS22L	1454998418049	15	NBA experts	hhl	Jason Barley and Richard Trellis have been close friends for almost three decades.	1	1	0	test_false	0.68	21794	English	Thanks for the work! :)	10	5
A11C9D55C41PB2:3BGYGHDBBYSKVUEY4AKZ5HJ4SCS22L	1454998435595	16	NBA experts	hhl	It is important for Richard Trellis to know whether Greg Jones secured victory for his team during the last seconds of all of the decisive playoff matches.	1	1	0	rel	0.79	17546	English	Thanks for the work! :)	10	5
A11S43P3WNLIZD:3JV9LGBJWUMOHVBAQN3LEYG83ZSOGT	1454964338510	1	stand-up comedy show	lll	Lennard is a salesman for karaoke machines.	0	0	0	test_false	0.02	13593	english	none	5	5
A11S43P3WNLIZD:3JV9LGBJWUMOHVBAQN3LEYG83ZSOGT	1454964352577	2	stand-up comedy show	lll	Lennard knows whether all of the people who came yesterday also came to today's show.	0	0	0	comp	0.37	14064	english	none	5	5
A11S43P3WNLIZD:3JV9LGBJWUMOHVBAQN3LEYG83ZSOGT	1454964365341	3	Star Trek expert quiz	hhh	George asked ten questions about 'Star Wars'.	1	1	1	test_false	1	12762	english	none	5	5
A11S43P3WNLIZD:3JV9LGBJWUMOHVBAQN3LEYG83ZSOGT	1454964385289	4	Star Trek expert quiz	hhh	It is important for Amber to know whether she got all of the answers right.	1	1	1	rel	0.63	19946	english	none	5	5
A11S43P3WNLIZD:3JV9LGBJWUMOHVBAQN3LEYG83ZSOGT	1454964398563	5	rotten tomatoes	hll	Gilbert is a former drug addict.	1	0	0	test_uncertain	0.25	13273	english	none	5	5
A11S43P3WNLIZD:3JV9LGBJWUMOHVBAQN3LEYG83ZSOGT	1454964405686	6	rotten tomatoes	hll	From what Gilbert said we may conclude that not all of the tomatoes are rotten.	1	0	0	imp	1	7122	english	none	5	5
A11S43P3WNLIZD:3JV9LGBJWUMOHVBAQN3LEYG83ZSOGT	1454964424611	7	van Gogh exhibition	lhl	The curator refused to talk to the mayor.	0	1	0	test_false	0	18923	english	none	5	5
A11S43P3WNLIZD:3JV9LGBJWUMOHVBAQN3LEYG83ZSOGT	1454964430009	8	van Gogh exhibition	lhl	The curator knows whether all of van Gogh's paintings are among the most valuable paintings in the world.	0	1	0	comp	0.55	5395	english	none	5	5
A11S43P3WNLIZD:3JV9LGBJWUMOHVBAQN3LEYG83ZSOGT	1454964446980	9	Harvard admission exams	hlh	Ethan failed to study intensively for his exams.	1	0	1	test_false	0.41	16969	english	none	5	5
A11S43P3WNLIZD:3JV9LGBJWUMOHVBAQN3LEYG83ZSOGT	1454964452643	10	Harvard admission exams	hlh	From what Eleanor said we may conclude that Ethan did not pass all of the exams.	1	0	1	imp	1	5661	english	none	5	5
A11S43P3WNLIZD:3JV9LGBJWUMOHVBAQN3LEYG83ZSOGT	1454964464378	11	tail-donkey blindfold	hhl	Grace is unable to see where she has to pin the tails.	1	1	0	test_true	1	11733	english	none	5	5
A11S43P3WNLIZD:3JV9LGBJWUMOHVBAQN3LEYG83ZSOGT	1454964474237	12	tail-donkey blindfold	hhl	Grace put all of the tails in the right place.	1	1	0	prior	0.47	9859	english	none	5	5
A11S43P3WNLIZD:3JV9LGBJWUMOHVBAQN3LEYG83ZSOGT	1454964483627	13	gourmet desserts	lhh	Jeremy cares about good food.	0	0	1	test_true	0.62	9388	english	none	5	5
A11S43P3WNLIZD:3JV9LGBJWUMOHVBAQN3LEYG83ZSOGT	1454964488219	14	gourmet desserts	lhh	From what Claire said we may conclude that not all of the restaurant's desserts are fantastic.	0	0	1	imp	1	4591	english	none	5	5
A11S43P3WNLIZD:3JV9LGBJWUMOHVBAQN3LEYG83ZSOGT	1454964514051	15	Martha's cookies	llh	Martha is allergic to chocolate.	0	0	1	test_uncertain	1	25829	english	none	5	5
A11S43P3WNLIZD:3JV9LGBJWUMOHVBAQN3LEYG83ZSOGT	1454964525555	16	Martha's cookies	llh	Emily ate all of the cookies.	0	0	1	prior	0.54	11500	english	none	5	5
A130UW3VJCW7A0:3WEV0KO0ON0033TCVEJMSINCNWFDS5	1454962194591	1	emails from a broken laptop	lll	Kate's laptop has a problem with the wifi connection.	0	0	0	test_uncertain	0.58	38150	English	NA	9	5
A130UW3VJCW7A0:3WEV0KO0ON0033TCVEJMSINCNWFDS5	1454962206652	2	emails from a broken laptop	lll	Joshua received all of Kate's emails.	0	0	0	prior	0.79	12057	English	NA	9	5
A130UW3VJCW7A0:3WEV0KO0ON0033TCVEJMSINCNWFDS5	1454962230617	3	Martha's cookies	llh	Martha is allergic to chocolate.	0	0	1	test_uncertain	0.5	23960	English	NA	9	5
A130UW3VJCW7A0:3WEV0KO0ON0033TCVEJMSINCNWFDS5	1454962242757	4	Martha's cookies	llh	From what Martha said we may conclude that Emily did not eat all of the cookies.	0	0	1	imp	0.82	12134	English	NA	9	5
A130UW3VJCW7A0:3WEV0KO0ON0033TCVEJMSINCNWFDS5	1454962259929	5	schizophrenia talk	hll	Lucy's talk is unlikely to stir much commotion.	1	0	0	test_false	0.17	17167	English	NA	9	5
A130UW3VJCW7A0:3WEV0KO0ON0033TCVEJMSINCNWFDS5	1454962266202	6	schizophrenia talk	hll	All of the people enjoyed Lucy's talk.	1	0	0	prior	0.44	6267	English	NA	9	5
A130UW3VJCW7A0:3WEV0KO0ON0033TCVEJMSINCNWFDS5	1454962299375	7	van Gogh exhibition	lhl	The curator refused to talk to the mayor.	0	1	0	test_false	0	33167	English	NA	9	5
A130UW3VJCW7A0:3WEV0KO0ON0033TCVEJMSINCNWFDS5	1454962311313	8	van Gogh exhibition	lhl	From what the curator said we may conclude that not all of van Gogh's paintings are among the most valuable paintings in the world.	0	1	0	imp	0.27	11932	English	NA	9	5
A130UW3VJCW7A0:3WEV0KO0ON0033TCVEJMSINCNWFDS5	1454962353483	9	gift unwrapping	lhh	Suzanne attended Leonard's birthday party.	0	1	1	test_true	1	42166	English	NA	9	5
A130UW3VJCW7A0:3WEV0KO0ON0033TCVEJMSINCNWFDS5	1454962360084	10	gift unwrapping	lhh	It is important for Suzanne's mother to know whether Leonard unwrapped all of the presents right away.	0	1	1	rel	0.25	6595	English	NA	9	5
A130UW3VJCW7A0:3WEV0KO0ON0033TCVEJMSINCNWFDS5	1454962405825	11	Swiss watch protoype testing	hlh	The company uses spare parts imported from Malaysia.	1	0	1	test_uncertain	0.17	45735	English	NA	9	5
A130UW3VJCW7A0:3WEV0KO0ON0033TCVEJMSINCNWFDS5	1454962417780	12	Swiss watch protoype testing	hlh	From what the apprentice said we may conclude that the prototype did not pass all of the tests scheduled for today.	1	0	1	imp	0.93	11949	English	NA	9	5
A130UW3VJCW7A0:3WEV0KO0ON0033TCVEJMSINCNWFDS5	1454962452968	13	hotel check	hhh	Mr Jaynes is the manager of the San Diego hotel.	1	1	1	test_false	0.22	35184	English	NA	9	5
A130UW3VJCW7A0:3WEV0KO0ON0033TCVEJMSINCNWFDS5	1454962462009	14	hotel check	hhh	It is important for Mr Jaynes to know whether all of the rooms had working air conditioning.	1	1	1	rel	0.96	9036	English	NA	9	5
A130UW3VJCW7A0:3WEV0KO0ON0033TCVEJMSINCNWFDS5	1454962479554	15	tail-donkey blindfold	hhl	Grace is unable to see where she has to pin the tails.	1	1	0	test_true	1	17539	English	NA	9	5
A130UW3VJCW7A0:3WEV0KO0ON0033TCVEJMSINCNWFDS5	1454962484081	16	tail-donkey blindfold	hhl	Oliver knows whether Grace put all of the tails in the right place.	1	1	0	comp	1	4521	English	NA	9	5
A13CBHSP2558HR:3GFK2QRXXAPY67VS0DB4RV25GSDW5V	1454961219223	1	Star Trek expert quiz	hhh	Amber won the game.	1	1	1	test_uncertain	1	24338	english	NA	9	9
A13CBHSP2558HR:3GFK2QRXXAPY67VS0DB4RV25GSDW5V	1454961238714	2	Star Trek expert quiz	hhh	From what George said we may conclude that Amber did not get all of the answers right.	1	1	1	imp	1	19491	english	NA	9	9
A13CBHSP2558HR:3GFK2QRXXAPY67VS0DB4RV25GSDW5V	1454961282720	3	emails from a broken laptop	lll	Kate has difficulties sending emails.	0	0	0	test_true	0.3	44005	english	NA	9	9
A13CBHSP2558HR:3GFK2QRXXAPY67VS0DB4RV25GSDW5V	1454961288560	4	emails from a broken laptop	lll	Joshua knows whether he received all of Kate's emails.	0	0	0	comp	0	5839	english	NA	9	9
A13CBHSP2558HR:3GFK2QRXXAPY67VS0DB4RV25GSDW5V	1454961314795	5	NBA experts	hhl	Greg Jones' team is in the playoffs of this year's NBA season.	1	1	0	test_true	0.13	26235	english	NA	9	9
A13CBHSP2558HR:3GFK2QRXXAPY67VS0DB4RV25GSDW5V	1454961322859	6	NBA experts	hhl	Greg Jones secured victory for his team during the last seconds of all of the decisive playoff matches.	1	1	0	prior	0.11	8064	english	NA	9	9
A13CBHSP2558HR:3GFK2QRXXAPY67VS0DB4RV25GSDW5V	1454961340511	7	M&M's in the hospital	lhh	Aunt Bethany gave Henry only candy.	0	1	1	test_false	0	17652	english	NA	9	9
A13CBHSP2558HR:3GFK2QRXXAPY67VS0DB4RV25GSDW5V	1454961348499	8	M&M's in the hospital	lhh	Henry knows whether he liked all of the M&Ms.	0	1	1	comp	0.78	7988	english	NA	9	9
A13CBHSP2558HR:3GFK2QRXXAPY67VS0DB4RV25GSDW5V	1454961414058	9	Harvard admission exams	hlh	Eleanor passed some of her exams.	1	0	1	test_uncertain	0.89	65558	english	NA	9	9
A13CBHSP2558HR:3GFK2QRXXAPY67VS0DB4RV25GSDW5V	1454961422528	10	Harvard admission exams	hlh	It is important for Ethan to know whether he passed all of the exams.	1	0	1	rel	0.87	8470	english	NA	9	9
A13CBHSP2558HR:3GFK2QRXXAPY67VS0DB4RV25GSDW5V	1454961445298	11	Martha's cookies	llh	Emily really enjoys chocolate.	0	0	1	test_true	0.15	22769	english	NA	9	9
A13CBHSP2558HR:3GFK2QRXXAPY67VS0DB4RV25GSDW5V	1454961453724	12	Martha's cookies	llh	Emily ate all of the cookies.	0	0	1	prior	0.6	8426	english	NA	9	9
A13CBHSP2558HR:3GFK2QRXXAPY67VS0DB4RV25GSDW5V	1454961475330	13	van Gogh exhibition	lhl	The curator refused to talk to the mayor.	0	1	0	test_false	0	21605	english	NA	9	9
A13CBHSP2558HR:3GFK2QRXXAPY67VS0DB4RV25GSDW5V	1454961482662	14	van Gogh exhibition	lhl	It is important for the mayor to know whether all of van Gogh's paintings are among the most valuable paintings in the world.	0	1	0	rel	0.1	7331	english	NA	9	9
A13CBHSP2558HR:3GFK2QRXXAPY67VS0DB4RV25GSDW5V	1454961502514	15	schizophrenia talk	hll	Lucy is really nervous about the talk. 	1	0	0	test_uncertain	0.24	19851	english	NA	9	9
A13CBHSP2558HR:3GFK2QRXXAPY67VS0DB4RV25GSDW5V	1454961509602	16	schizophrenia talk	hll	From what Jacob said we may conclude that not all of the people enjoyed Lucy's talk.	1	0	0	imp	0.88	7087	english	NA	9	9
A13O647FD24R4V:3KKG4CDWKJ65YSEKTXI28JOGIVY499	1454961257421	1	Harvard admission exams	hlh	Ethan is trying to get into an Ivy League university.	1	0	1	test_true	1	24141	english	thank you!	10	6
A13O647FD24R4V:3KKG4CDWKJ65YSEKTXI28JOGIVY499	1454961271654	2	Harvard admission exams	hlh	From what Eleanor said we may conclude that Ethan did not pass all of the exams.	1	0	1	imp	0.68	14231	english	thank you!	10	6
A13O647FD24R4V:3KKG4CDWKJ65YSEKTXI28JOGIVY499	1454961283172	3	gourmet desserts	lhh	Jeremy cares about good food.	0	0	1	test_true	1	11516	english	thank you!	10	6
A13O647FD24R4V:3KKG4CDWKJ65YSEKTXI28JOGIVY499	1454961295188	4	gourmet desserts	lhh	All of the restaurant's desserts are fantastic.	0	0	1	prior	0.63	12014	english	thank you!	10	6
A13O647FD24R4V:3KKG4CDWKJ65YSEKTXI28JOGIVY499	1454961309148	5	stand-up comedy show	lll	Lennard is making plans for his early retirement.	0	0	0	test_uncertain	0.37	13958	english	thank you!	10	6
A13O647FD24R4V:3KKG4CDWKJ65YSEKTXI28JOGIVY499	1454961327429	6	stand-up comedy show	lll	Lennard knows whether all of the people who came yesterday also came to today's show.	0	0	0	comp	0.58	18279	english	thank you!	10	6
A13O647FD24R4V:3KKG4CDWKJ65YSEKTXI28JOGIVY499	1454961339244	7	schizophrenia talk	hll	Lucy is really nervous about the talk. 	1	0	0	test_uncertain	0.58	11813	english	thank you!	10	6
A13O647FD24R4V:3KKG4CDWKJ65YSEKTXI28JOGIVY499	1454961354100	8	schizophrenia talk	hll	From what Jacob said we may conclude that not all of the people enjoyed Lucy's talk.	1	0	0	imp	0.68	14854	english	thank you!	10	6
A13O647FD24R4V:3KKG4CDWKJ65YSEKTXI28JOGIVY499	1454961363621	9	van Gogh exhibition	lhl	The curator refused to talk to the mayor.	0	1	0	test_false	0	9517	english	thank you!	10	6
A13O647FD24R4V:3KKG4CDWKJ65YSEKTXI28JOGIVY499	1454961372557	10	van Gogh exhibition	lhl	All of van Gogh's paintings are among the most valuable paintings in the world.	0	1	0	prior	0.79	8933	english	thank you!	10	6
A13O647FD24R4V:3KKG4CDWKJ65YSEKTXI28JOGIVY499	1454961389365	11	Martha's cookies	llh	Emily really enjoys chocolate.	0	0	1	test_true	1	16806	english	thank you!	10	6
A13O647FD24R4V:3KKG4CDWKJ65YSEKTXI28JOGIVY499	1454961418957	12	Martha's cookies	llh	From what Martha said we may conclude that Emily did not eat all of the cookies.	0	0	1	imp	0.24	29590	english	thank you!	10	6
A13O647FD24R4V:3KKG4CDWKJ65YSEKTXI28JOGIVY499	1454961429644	13	Star Trek expert quiz	hhh	Amber won the game.	1	1	1	test_uncertain	0.66	10686	english	thank you!	10	6
A13O647FD24R4V:3KKG4CDWKJ65YSEKTXI28JOGIVY499	1454961437300	14	Star Trek expert quiz	hhh	George knows whether Amber got all of the answers right.	1	1	1	comp	0.86	7654	english	thank you!	10	6
A13O647FD24R4V:3KKG4CDWKJ65YSEKTXI28JOGIVY499	1454961457164	15	tail-donkey blindfold	hhl	Grace is unable to see where she has to pin the tails.	1	1	0	test_true	1	19862	english	thank you!	10	6
A13O647FD24R4V:3KKG4CDWKJ65YSEKTXI28JOGIVY499	1454961478270	16	tail-donkey blindfold	hhl	From what Oliver said we may conclude that Grace did not put all of the tails in the right place.	1	1	0	imp	0.99	21104	english	thank you!	10	6
A13VIJ7G997ZCY:3WQ3B2KGE9O7UMWY4ZDW1RC3UBR1B3	1454961742683	1	schizophrenia talk	hll	Lucy is really nervous about the talk. 	1	0	0	test_uncertain	0.63	16781	English	NA	7	6
A13VIJ7G997ZCY:3WQ3B2KGE9O7UMWY4ZDW1RC3UBR1B3	1454961756970	2	schizophrenia talk	hll	From what Jacob said we may conclude that not all of the people enjoyed Lucy's talk.	1	0	0	imp	0.72	14287	English	NA	7	6
A13VIJ7G997ZCY:3WQ3B2KGE9O7UMWY4ZDW1RC3UBR1B3	1454961784570	3	Swiss watch protoype testing	hlh	The company uses spare parts imported from Malaysia.	1	0	1	test_uncertain	0.26	27599	English	NA	7	6
A13VIJ7G997ZCY:3WQ3B2KGE9O7UMWY4ZDW1RC3UBR1B3	1454961791866	4	Swiss watch protoype testing	hlh	The apprentice knows whether the prototype passed all of the tests scheduled for today.	1	0	1	comp	0.08	7296	English	NA	7	6
A13VIJ7G997ZCY:3WQ3B2KGE9O7UMWY4ZDW1RC3UBR1B3	1454961819203	5	Martha's cookies	llh	Martha had dinner with a friend.	0	0	1	test_false	0.67	27336	English	NA	7	6
A13VIJ7G997ZCY:3WQ3B2KGE9O7UMWY4ZDW1RC3UBR1B3	1454961835123	6	Martha's cookies	llh	From what Martha said we may conclude that Emily did not eat all of the cookies.	0	0	1	imp	0.16	15919	English	NA	7	6
A13VIJ7G997ZCY:3WQ3B2KGE9O7UMWY4ZDW1RC3UBR1B3	1454961841899	7	M&M's in the hospital	lhh	Aunt Bethany gave Henry only candy.	0	1	1	test_false	0	6775	English	NA	7	6
A13VIJ7G997ZCY:3WQ3B2KGE9O7UMWY4ZDW1RC3UBR1B3	1454961849803	8	M&M's in the hospital	lhh	Henry liked all of the M&Ms.	0	1	1	prior	0.69	7903	English	NA	7	6
A13VIJ7G997ZCY:3WQ3B2KGE9O7UMWY4ZDW1RC3UBR1B3	1454961861067	9	Star Trek expert quiz	hhh	Amber won the game.	1	1	1	test_uncertain	0.5	11262	English	NA	7	6
A13VIJ7G997ZCY:3WQ3B2KGE9O7UMWY4ZDW1RC3UBR1B3	1454961867122	10	Star Trek expert quiz	hhh	From what George said we may conclude that Amber did not get all of the answers right.	1	1	1	imp	0.98	6055	English	NA	7	6
A13VIJ7G997ZCY:3WQ3B2KGE9O7UMWY4ZDW1RC3UBR1B3	1454961879059	11	van Gogh exhibition	lhl	The curator refused to talk to the mayor.	0	1	0	test_false	0	11935	English	NA	7	6
A13VIJ7G997ZCY:3WQ3B2KGE9O7UMWY4ZDW1RC3UBR1B3	1454961884866	12	van Gogh exhibition	lhl	The curator knows whether all of van Gogh's paintings are among the most valuable paintings in the world.	0	1	0	comp	1	5807	English	NA	7	6
A13VIJ7G997ZCY:3WQ3B2KGE9O7UMWY4ZDW1RC3UBR1B3	1454961896658	13	stand-up comedy show	lll	Lennard is popular in Seattle.	0	0	0	test_true	0.58	11791	English	NA	7	6
A13VIJ7G997ZCY:3WQ3B2KGE9O7UMWY4ZDW1RC3UBR1B3	1454961900203	14	stand-up comedy show	lll	All of the people who came yesterday also came to today's show.	0	0	0	prior	0.03	3543	English	NA	7	6
A13VIJ7G997ZCY:3WQ3B2KGE9O7UMWY4ZDW1RC3UBR1B3	1454961931483	15	NBA experts	hhl	Jason Barley and Greg Jones are on the payroll of the same sports equipment manufacturer.	1	1	0	test_uncertain	0.42	31280	English	NA	7	6
A13VIJ7G997ZCY:3WQ3B2KGE9O7UMWY4ZDW1RC3UBR1B3	1454961940979	16	NBA experts	hhl	It is important for Richard Trellis to know whether Greg Jones secured victory for his team during the last seconds of all of the decisive playoff matches.	1	1	0	rel	1	9495	English	NA	7	6
A142ZRU284W9O:3HVVDCPGTF04GE1IGABQF8TZ73ZYTN	1454962398867	1	Harvard admission exams	hlh	Ethan is trying to get into an Ivy League university.	1	0	1	test_true	1	5150	English	NA	5	4
A142ZRU284W9O:3HVVDCPGTF04GE1IGABQF8TZ73ZYTN	1454962402621	2	Harvard admission exams	hlh	From what Eleanor said we may conclude that Ethan did not pass all of the exams.	1	0	1	imp	0.63	3753	English	NA	5	4
A142ZRU284W9O:3HVVDCPGTF04GE1IGABQF8TZ73ZYTN	1454962412123	3	emails from a broken laptop	lll	Kate is working on a desktop computer.	0	0	0	test_false	0.05	9501	English	NA	5	4
A142ZRU284W9O:3HVVDCPGTF04GE1IGABQF8TZ73ZYTN	1454962416346	4	emails from a broken laptop	lll	It is important for Kate to know whether Joshua received all of her emails.	0	0	0	rel	0.5	4222	English	NA	5	4
A142ZRU284W9O:3HVVDCPGTF04GE1IGABQF8TZ73ZYTN	1454962422516	5	van Gogh exhibition	lhl	The van Gogh exhibition is an important event for the city.	0	1	0	test_true	0.81	6169	English	NA	5	4
A142ZRU284W9O:3HVVDCPGTF04GE1IGABQF8TZ73ZYTN	1454962428973	6	van Gogh exhibition	lhl	The curator knows whether all of van Gogh's paintings are among the most valuable paintings in the world.	0	1	0	comp	0.8	6456	English	NA	5	4
A142ZRU284W9O:3HVVDCPGTF04GE1IGABQF8TZ73ZYTN	1454962436645	7	gift unwrapping	lhh	There were twelve children at the party.	0	1	1	test_uncertain	0.16	7671	English	NA	5	4
A142ZRU284W9O:3HVVDCPGTF04GE1IGABQF8TZ73ZYTN	1454962453933	8	gift unwrapping	lhh	From what Leonard's mother said we may conclude that Leonard did not unwrap all of the presents right away.	0	1	1	imp	0.72	17288	English	NA	5	4
A142ZRU284W9O:3HVVDCPGTF04GE1IGABQF8TZ73ZYTN	1454962459898	9	rotten tomatoes	hll	Ted is fully dedicated to serving high quality food.	1	0	0	test_true	0.75	5964	English	NA	5	4
A142ZRU284W9O:3HVVDCPGTF04GE1IGABQF8TZ73ZYTN	1454962466515	10	rotten tomatoes	hll	All of the tomatoes are rotten.	1	0	0	prior	0.5	6615	English	NA	5	4
A142ZRU284W9O:3HVVDCPGTF04GE1IGABQF8TZ73ZYTN	1454962472312	11	Martha's cookies	llh	Martha is allergic to chocolate.	0	0	1	test_uncertain	0.24	5797	English	NA	5	4
A142ZRU284W9O:3HVVDCPGTF04GE1IGABQF8TZ73ZYTN	1454962477196	12	Martha's cookies	llh	It is important for Martha's husband to know whether Emily ate all of the cookies.	0	0	1	rel	0.2	4883	English	NA	5	4
A142ZRU284W9O:3HVVDCPGTF04GE1IGABQF8TZ73ZYTN	1454962486931	13	tail-donkey blindfold	hhl	Grace and Oliver live in the same apartment.	1	1	0	test_uncertain	0.35	9733	English	NA	5	4
A142ZRU284W9O:3HVVDCPGTF04GE1IGABQF8TZ73ZYTN	1454962493628	14	tail-donkey blindfold	hhl	Oliver knows whether Grace put all of the tails in the right place.	1	1	0	comp	0.98	6697	English	NA	5	4
A142ZRU284W9O:3HVVDCPGTF04GE1IGABQF8TZ73ZYTN	1454962499153	15	hotel check	hhh	Harry has just inspected the San Diego hotel.	1	1	1	test_true	1	5524	English	NA	5	4
A142ZRU284W9O:3HVVDCPGTF04GE1IGABQF8TZ73ZYTN	1454962503168	16	hotel check	hhh	From what Harry said we may conclude that not all of the rooms had working air conditioning.	1	1	1	imp	0.96	4013	English	NA	5	4
A149ROBL26JWPJ:3K4J6M3CXF1ZFRH9G4Y3D3W3EIUGAS	1454968543599	1	emails from a broken laptop	lll	Kate is working on a desktop computer.	0	0	0	test_false	0.33	19258	English	NA	7	6
A149ROBL26JWPJ:3K4J6M3CXF1ZFRH9G4Y3D3W3EIUGAS	1454968555544	2	emails from a broken laptop	lll	It is important for Kate to know whether Joshua received all of her emails.	0	0	0	rel	0.92	11945	English	NA	7	6
A149ROBL26JWPJ:3K4J6M3CXF1ZFRH9G4Y3D3W3EIUGAS	1454968621436	3	Swiss watch protoype testing	hlh	Torsten Steinmeier is not executing the tests on the prototype himself.	1	0	1	test_true	0.2	65891	English	NA	7	6
A149ROBL26JWPJ:3K4J6M3CXF1ZFRH9G4Y3D3W3EIUGAS	1454968687553	4	Swiss watch protoype testing	hlh	The apprentice knows whether the prototype passed all of the tests scheduled for today.	1	0	1	comp	0.12	66116	English	NA	7	6
A149ROBL26JWPJ:3K4J6M3CXF1ZFRH9G4Y3D3W3EIUGAS	1454968698345	5	Star Trek expert quiz	hhh	Amber won the game.	1	1	1	test_uncertain	0.73	10791	English	NA	7	6
A149ROBL26JWPJ:3K4J6M3CXF1ZFRH9G4Y3D3W3EIUGAS	1454968704747	6	Star Trek expert quiz	hhh	Amber got all of the questions right.	1	1	1	prior	0.57	6400	English	NA	7	6
A149ROBL26JWPJ:3K4J6M3CXF1ZFRH9G4Y3D3W3EIUGAS	1454968724982	7	gift unwrapping	lhh	Leonard's mother was abroad and could therefore not attend the birthday party.	0	1	1	test_false	0.03	20235	English	NA	7	6
A149ROBL26JWPJ:3K4J6M3CXF1ZFRH9G4Y3D3W3EIUGAS	1454968734613	8	gift unwrapping	lhh	Leonard's mother knows whether Leonard unwrapped all of the presents right away.	0	1	1	comp	0.74	9630	English	NA	7	6
A149ROBL26JWPJ:3K4J6M3CXF1ZFRH9G4Y3D3W3EIUGAS	1454968743405	9	tail-donkey blindfold	hhl	Grace and Oliver live in the same apartment.	1	1	0	test_uncertain	0.58	8791	English	NA	7	6
A149ROBL26JWPJ:3K4J6M3CXF1ZFRH9G4Y3D3W3EIUGAS	1454968752338	10	tail-donkey blindfold	hhl	It is important for Grace to know whether she put all of the tails in the right place.	1	1	0	rel	0.57	8931	English	NA	7	6
A149ROBL26JWPJ:3K4J6M3CXF1ZFRH9G4Y3D3W3EIUGAS	1454968763024	11	rotten tomatoes	hll	Gilbert is a former drug addict.	1	0	0	test_uncertain	0.24	10685	English	NA	7	6
A149ROBL26JWPJ:3K4J6M3CXF1ZFRH9G4Y3D3W3EIUGAS	1454968772507	12	rotten tomatoes	hll	From what Gilbert said we may conclude that not all of the tomatoes are rotten.	1	0	0	imp	0.58	9481	English	NA	7	6
A149ROBL26JWPJ:3K4J6M3CXF1ZFRH9G4Y3D3W3EIUGAS	1454968842325	13	van Gogh exhibition	lhl	The curator refused to talk to the mayor.	0	1	0	test_false	0.01	69817	English	NA	7	6
A149ROBL26JWPJ:3K4J6M3CXF1ZFRH9G4Y3D3W3EIUGAS	1454968847649	14	van Gogh exhibition	lhl	All of van Gogh's paintings are among the most valuable paintings in the world.	0	1	0	prior	0.37	5322	English	NA	7	6
A149ROBL26JWPJ:3K4J6M3CXF1ZFRH9G4Y3D3W3EIUGAS	1454968871984	15	Martha's cookies	llh	Martha had dinner with a friend.	0	0	1	test_false	0.24	24334	English	NA	7	6
A149ROBL26JWPJ:3K4J6M3CXF1ZFRH9G4Y3D3W3EIUGAS	1454968883656	16	Martha's cookies	llh	From what Martha said we may conclude that Emily did not eat all of the cookies.	0	0	1	imp	0.4	11672	English	NA	7	6
A14WLAP6TCEKO0:3VA45EW49OVRDGL784II7BC21AWO1G	1454943879649	1	Swiss watch protoype testing	hlh	Testing of the prototype is finished.	1	0	1	test_false	0.08	42632	English	no	9	0
A14WLAP6TCEKO0:3VA45EW49OVRDGL784II7BC21AWO1G	1454943896443	2	Swiss watch protoype testing	hlh	From what the apprentice said we may conclude that the prototype did not pass all of the tests scheduled for today.	1	0	1	imp	0.14	16793	English	no	9	0
A14WLAP6TCEKO0:3VA45EW49OVRDGL784II7BC21AWO1G	1454943922406	3	rotten tomatoes	hll	Gilbert is the cleaning lady.	1	0	0	test_false	0	25962	English	no	9	0
A14WLAP6TCEKO0:3VA45EW49OVRDGL784II7BC21AWO1G	1454943933743	4	rotten tomatoes	hll	All of the tomatoes are rotten.	1	0	0	prior	0.07	11336	English	no	9	0
A14WLAP6TCEKO0:3VA45EW49OVRDGL784II7BC21AWO1G	1454943971531	5	Star Trek expert quiz	hhh	George asked ten questions about 'Star Wars'.	1	1	1	test_false	0.91	37787	English	no	9	0
A14WLAP6TCEKO0:3VA45EW49OVRDGL784II7BC21AWO1G	1454943979252	6	Star Trek expert quiz	hhh	It is important for Amber to know whether she got all of the answers right.	1	1	1	rel	0.49	7720	English	no	9	0
A14WLAP6TCEKO0:3VA45EW49OVRDGL784II7BC21AWO1G	1454944001374	7	stand-up comedy show	lll	Lennard is popular in Seattle.	0	0	0	test_true	0.76	22122	English	no	9	0
A14WLAP6TCEKO0:3VA45EW49OVRDGL784II7BC21AWO1G	1454944006663	8	stand-up comedy show	lll	Lennard knows whether all of the people who came yesterday also came to today's show.	0	0	0	comp	0.02	5288	English	no	9	0
A14WLAP6TCEKO0:3VA45EW49OVRDGL784II7BC21AWO1G	1454944026690	9	Martha's cookies	llh	Emily really enjoys chocolate.	0	0	1	test_true	0.75	20026	English	no	9	0
A14WLAP6TCEKO0:3VA45EW49OVRDGL784II7BC21AWO1G	1454944030723	10	Martha's cookies	llh	Emily ate all of the cookies.	0	0	1	prior	0.47	4032	English	no	9	0
A14WLAP6TCEKO0:3VA45EW49OVRDGL784II7BC21AWO1G	1454944054186	11	NBA experts	hhl	Greg Jones' team is in the playoffs of this year's NBA season.	1	1	0	test_true	0.57	23462	English	no	9	0
A14WLAP6TCEKO0:3VA45EW49OVRDGL784II7BC21AWO1G	1454944066340	12	NBA experts	hhl	From what Jason Barley said we may conclude that Greg Jones did not secure victory for his team during the last seconds of all of the decisive playoff matches.	1	1	0	imp	0.65	12153	English	no	9	0
A14WLAP6TCEKO0:3VA45EW49OVRDGL784II7BC21AWO1G	1454944080221	13	M&M's in the hospital	lhh	Henry was involved in a skiing accident.	0	1	1	test_true	0.84	13878	English	no	9	0
A14WLAP6TCEKO0:3VA45EW49OVRDGL784II7BC21AWO1G	1454944084974	14	M&M's in the hospital	lhh	Henry knows whether he liked all of the M&Ms.	0	1	1	comp	0.98	4752	English	no	9	0
A14WLAP6TCEKO0:3VA45EW49OVRDGL784II7BC21AWO1G	1454944097590	15	van Gogh exhibition	lhl	The mayor is not interested in art exhibitions.	0	1	0	test_uncertain	0.18	12615	English	no	9	0
A14WLAP6TCEKO0:3VA45EW49OVRDGL784II7BC21AWO1G	1454944103255	16	van Gogh exhibition	lhl	It is important for the mayor to know whether all of van Gogh's paintings are among the most valuable paintings in the world.	0	1	0	rel	0.8	5664	English	no	9	0
A154X03NKVZZL1:3EF8EXOTT23DC5UASRQDZFVG2GN1JB	1454944180187	1	emails from a broken laptop	lll	Kate's laptop has a problem with the wifi connection.	0	0	0	test_uncertain	0.62	31324	english	no	4	4
A154X03NKVZZL1:3EF8EXOTT23DC5UASRQDZFVG2GN1JB	1454944189667	2	emails from a broken laptop	lll	Joshua knows whether he received all of Kate's emails.	0	0	0	comp	0.98	9477	english	no	4	4
A154X03NKVZZL1:3EF8EXOTT23DC5UASRQDZFVG2GN1JB	1454944203602	3	Martha's cookies	llh	Martha had dinner with a friend.	0	0	1	test_false	0.47	13931	english	no	4	4
A154X03NKVZZL1:3EF8EXOTT23DC5UASRQDZFVG2GN1JB	1454944208851	4	Martha's cookies	llh	It is important for Martha's husband to know whether Emily ate all of the cookies.	0	0	1	rel	0.34	5244	english	no	4	4
A154X03NKVZZL1:3EF8EXOTT23DC5UASRQDZFVG2GN1JB	1454944225961	5	Swiss watch protoype testing	hlh	The company uses spare parts imported from Malaysia.	1	0	1	test_uncertain	0.28	17107	english	no	4	4
A154X03NKVZZL1:3EF8EXOTT23DC5UASRQDZFVG2GN1JB	1454944231252	6	Swiss watch protoype testing	hlh	The prototype will pass all of the tests scheduled for today.	1	0	1	prior	0.51	5285	english	no	4	4
A154X03NKVZZL1:3EF8EXOTT23DC5UASRQDZFVG2GN1JB	1454944245606	7	underage drinking	lhl	The new laws on underage drinking are very strict.	0	1	0	test_true	0.85	14349	english	no	4	4
A154X03NKVZZL1:3EF8EXOTT23DC5UASRQDZFVG2GN1JB	1454944250789	8	underage drinking	lhl	From what Edward said we may conclude that not all of the patrons drinking alcohol were underage.	0	1	0	imp	1	5179	english	no	4	4
A154X03NKVZZL1:3EF8EXOTT23DC5UASRQDZFVG2GN1JB	1454944263075	9	gourmet desserts	lhh	Claire is the owner of the restaurant.	0	0	1	test_false	0.5	12284	english	no	4	4
A154X03NKVZZL1:3EF8EXOTT23DC5UASRQDZFVG2GN1JB	1454944266668	10	gourmet desserts	lhh	It is important for Jeremy to know whether all of their desserts are fantastic.	0	0	1	rel	0.72	3590	english	no	4	4
A154X03NKVZZL1:3EF8EXOTT23DC5UASRQDZFVG2GN1JB	1454944276863	11	schizophrenia talk	hll	Jacob works as a psychologist.	1	0	0	test_true	0.65	10191	english	no	4	4
A154X03NKVZZL1:3EF8EXOTT23DC5UASRQDZFVG2GN1JB	1454944281270	12	schizophrenia talk	hll	From what Jacob said we may conclude that not all of the people enjoyed Lucy's talk.	1	0	0	imp	0.04	4403	english	no	4	4
A154X03NKVZZL1:3EF8EXOTT23DC5UASRQDZFVG2GN1JB	1454944290267	13	hotel check	hhh	Harry will inspect the Los Angeles hotel next.	1	1	1	test_uncertain	0.64	8993	english	no	4	4
A154X03NKVZZL1:3EF8EXOTT23DC5UASRQDZFVG2GN1JB	1454944293795	14	hotel check	hhh	Harry knows whether all of the rooms had working air conditioning.	1	1	1	comp	0.38	3526	english	no	4	4
A154X03NKVZZL1:3EF8EXOTT23DC5UASRQDZFVG2GN1JB	1454944357596	15	NBA experts	hhl	Jason Barley and Greg Jones are on the payroll of the same sports equipment manufacturer.	1	1	0	test_uncertain	0.63	63797	english	no	4	4
A154X03NKVZZL1:3EF8EXOTT23DC5UASRQDZFVG2GN1JB	1454944360616	16	NBA experts	hhl	Greg Jones secured victory for his team during the last seconds of all of the decisive playoff matches.	1	1	0	prior	0.34	3015	english	no	4	4
A15Y1NIIP9O5F3:3PW9OPU9PRSD69W2L6KL0Y9Z06E214	1454998819748	1	tail-donkey blindfold	hhl	Grace is unable to see where she has to pin the tails.	1	1	0	test_true	1	58683	english	NA	10	3
A15Y1NIIP9O5F3:3PW9OPU9PRSD69W2L6KL0Y9Z06E214	1454998847786	2	tail-donkey blindfold	hhl	It is important for Grace to know whether she put all of the tails in the right place.	1	1	0	rel	0.76	28036	english	NA	10	3
A15Y1NIIP9O5F3:3PW9OPU9PRSD69W2L6KL0Y9Z06E214	1454998871570	3	gourmet desserts	lhh	Claire is the owner of the restaurant.	0	0	1	test_false	0	23783	english	NA	10	3
A15Y1NIIP9O5F3:3PW9OPU9PRSD69W2L6KL0Y9Z06E214	1454998891941	4	gourmet desserts	lhh	From what Claire said we may conclude that not all of the restaurant's desserts are fantastic.	0	0	1	imp	0.74	20370	english	NA	10	3
A15Y1NIIP9O5F3:3PW9OPU9PRSD69W2L6KL0Y9Z06E214	1454998950866	5	van Gogh exhibition	lhl	The van Gogh exhibition is an important event for the city.	0	1	0	test_true	0.72	58922	english	NA	10	3
A15Y1NIIP9O5F3:3PW9OPU9PRSD69W2L6KL0Y9Z06E214	1454998974938	6	van Gogh exhibition	lhl	All of van Gogh's paintings are among the most valuable paintings in the world.	0	1	0	prior	0.16	24072	english	NA	10	3
A15Y1NIIP9O5F3:3PW9OPU9PRSD69W2L6KL0Y9Z06E214	1454998997202	7	rotten tomatoes	hll	Ted is fully dedicated to serving high quality food.	1	0	0	test_true	0.7	22263	english	NA	10	3
A15Y1NIIP9O5F3:3PW9OPU9PRSD69W2L6KL0Y9Z06E214	1454999004130	8	rotten tomatoes	hll	From what Gilbert said we may conclude that not all of the tomatoes are rotten.	1	0	0	imp	1	6926	english	NA	10	3
A15Y1NIIP9O5F3:3PW9OPU9PRSD69W2L6KL0Y9Z06E214	1454999044015	9	Harvard admission exams	hlh	Ethan is trying to get into an Ivy League university.	1	0	1	test_true	0	39883	english	NA	10	3
A15Y1NIIP9O5F3:3PW9OPU9PRSD69W2L6KL0Y9Z06E214	1454999053778	10	Harvard admission exams	hlh	Ethan passed all of the exams.	1	0	1	prior	0.7	9762	english	NA	10	3
A15Y1NIIP9O5F3:3PW9OPU9PRSD69W2L6KL0Y9Z06E214	1454999086651	11	Star Trek expert quiz	hhh	Amber won the game.	1	1	1	test_uncertain	0	32872	english	NA	10	3
A15Y1NIIP9O5F3:3PW9OPU9PRSD69W2L6KL0Y9Z06E214	1454999091630	12	Star Trek expert quiz	hhh	From what George said we may conclude that Amber did not get all of the answers right.	1	1	1	imp	1	4978	english	NA	10	3
A15Y1NIIP9O5F3:3PW9OPU9PRSD69W2L6KL0Y9Z06E214	1454999133017	13	Martha's cookies	llh	Emily really enjoys chocolate.	0	0	1	test_true	1	41385	english	NA	10	3
A15Y1NIIP9O5F3:3PW9OPU9PRSD69W2L6KL0Y9Z06E214	1454999148705	14	Martha's cookies	llh	Martha knows whether Emily ate all of the cookies.	0	0	1	comp	1	15686	english	NA	10	3
A15Y1NIIP9O5F3:3PW9OPU9PRSD69W2L6KL0Y9Z06E214	1454999204354	15	stand-up comedy show	lll	Lennard is popular in Seattle.	0	0	0	test_true	1	55648	english	NA	10	3
A15Y1NIIP9O5F3:3PW9OPU9PRSD69W2L6KL0Y9Z06E214	1454999213762	16	stand-up comedy show	lll	It is important for Lennard's wife to know whether all of the people who came yesterday also came to today's show.	0	0	0	rel	0	9407	english	NA	10	3
A167SYXGXFU7C8:3DUZQ9U6SNWMXKTYMZJGY4TJN4IVSN	1454999280578	1	emails from a broken laptop	lll	Kate is working on a desktop computer.	0	0	0	test_false	0.4	39702	english	nothing i can think of	10	3
A167SYXGXFU7C8:3DUZQ9U6SNWMXKTYMZJGY4TJN4IVSN	1454999313154	2	emails from a broken laptop	lll	It is important for Kate to know whether Joshua received all of her emails.	0	0	0	rel	0.12	32575	english	nothing i can think of	10	3
A167SYXGXFU7C8:3DUZQ9U6SNWMXKTYMZJGY4TJN4IVSN	1454999347929	3	tail-donkey blindfold	hhl	Grace is unable to see where she has to pin the tails.	1	1	0	test_true	0.89	34773	english	nothing i can think of	10	3
A167SYXGXFU7C8:3DUZQ9U6SNWMXKTYMZJGY4TJN4IVSN	1454999366305	4	tail-donkey blindfold	hhl	From what Oliver said we may conclude that Grace did not put all of the tails in the right place.	1	1	0	imp	0.84	18374	english	nothing i can think of	10	3
A167SYXGXFU7C8:3DUZQ9U6SNWMXKTYMZJGY4TJN4IVSN	1454999384889	5	M&M's in the hospital	lhh	Aunt Bethany gave Henry only candy.	0	1	1	test_false	0	18570	english	nothing i can think of	10	3
A167SYXGXFU7C8:3DUZQ9U6SNWMXKTYMZJGY4TJN4IVSN	1454999398243	6	M&M's in the hospital	lhh	Henry liked all of the M&Ms.	0	1	1	prior	0.56	13352	english	nothing i can think of	10	3
A167SYXGXFU7C8:3DUZQ9U6SNWMXKTYMZJGY4TJN4IVSN	1454999445771	7	Martha's cookies	llh	Emily really enjoys chocolate.	0	0	1	test_true	0.97	47525	english	nothing i can think of	10	3
A167SYXGXFU7C8:3DUZQ9U6SNWMXKTYMZJGY4TJN4IVSN	1454999466338	8	Martha's cookies	llh	It is important for Martha's husband to know whether Emily ate all of the cookies.	0	0	1	rel	0	20564	english	nothing i can think of	10	3
A167SYXGXFU7C8:3DUZQ9U6SNWMXKTYMZJGY4TJN4IVSN	1454999509937	9	underage drinking	lhl	There were underage patrons drinking whiskey.	0	1	0	test_uncertain	0	43597	english	nothing i can think of	10	3
A167SYXGXFU7C8:3DUZQ9U6SNWMXKTYMZJGY4TJN4IVSN	1454999523841	10	underage drinking	lhl	Edward knows whether all of the patrons drinking alcohol were underage.	0	1	0	comp	0.97	13902	english	nothing i can think of	10	3
A167SYXGXFU7C8:3DUZQ9U6SNWMXKTYMZJGY4TJN4IVSN	1454999550289	11	schizophrenia talk	hll	Jacob works as a psychologist.	1	0	0	test_true	0.88	26447	english	nothing i can think of	10	3
A167SYXGXFU7C8:3DUZQ9U6SNWMXKTYMZJGY4TJN4IVSN	1454999568402	12	schizophrenia talk	hll	All of the people enjoyed Lucy's talk.	1	0	0	prior	0.58	18111	english	nothing i can think of	10	3
A167SYXGXFU7C8:3DUZQ9U6SNWMXKTYMZJGY4TJN4IVSN	1454999659731	13	Swiss watch protoype testing	hlh	Torsten Steinmeier is not executing the tests on the prototype himself.	1	0	1	test_true	0.5	91327	english	nothing i can think of	10	3
A167SYXGXFU7C8:3DUZQ9U6SNWMXKTYMZJGY4TJN4IVSN	1454999683458	14	Swiss watch protoype testing	hlh	The apprentice knows whether the prototype passed all of the tests scheduled for today.	1	0	1	comp	0.09	23724	english	nothing i can think of	10	3
A167SYXGXFU7C8:3DUZQ9U6SNWMXKTYMZJGY4TJN4IVSN	1454999718265	15	Star Trek expert quiz	hhh	Amber won the game.	1	1	1	test_uncertain	0.75	34805	english	nothing i can think of	10	3
A167SYXGXFU7C8:3DUZQ9U6SNWMXKTYMZJGY4TJN4IVSN	1454999730513	16	Star Trek expert quiz	hhh	From what George said we may conclude that Amber did not get all of the answers right.	1	1	1	imp	0.91	12246	english	nothing i can think of	10	3
A16UAN46CNIRHY:345LHZDEDY0I0OJJRU8AUAJOHHB3UF	1454998242444	1	tail-donkey blindfold	hhl	Grace and Oliver are playing charades.	1	1	0	test_false	0	22139	English	No	7	1
A16UAN46CNIRHY:345LHZDEDY0I0OJJRU8AUAJOHHB3UF	1454998251232	2	tail-donkey blindfold	hhl	Oliver knows whether Grace put all of the tails in the right place.	1	1	0	comp	1	8786	English	No	7	1
A16UAN46CNIRHY:345LHZDEDY0I0OJJRU8AUAJOHHB3UF	1454998279633	3	underage drinking	lhl	There were underage patrons drinking whiskey.	0	1	0	test_uncertain	0.63	28399	English	No	7	1
A16UAN46CNIRHY:345LHZDEDY0I0OJJRU8AUAJOHHB3UF	1454998287940	4	underage drinking	lhl	From what Edward said we may conclude that not all of the patrons drinking alcohol were underage.	0	1	0	imp	1	8306	English	No	7	1
A16UAN46CNIRHY:345LHZDEDY0I0OJJRU8AUAJOHHB3UF	1454998308390	5	hotel check	hhh	Harry has just inspected the San Diego hotel.	1	1	1	test_true	0.91	20449	English	No	7	1
A16UAN46CNIRHY:345LHZDEDY0I0OJJRU8AUAJOHHB3UF	1454998314439	6	hotel check	hhh	All of the rooms had working air conditioning.	1	1	1	prior	0.59	6046	English	No	7	1
A16UAN46CNIRHY:345LHZDEDY0I0OJJRU8AUAJOHHB3UF	1454998346424	7	Martha's cookies	llh	Emily really enjoys chocolate.	0	0	1	test_true	1	31982	English	No	7	1
A16UAN46CNIRHY:345LHZDEDY0I0OJJRU8AUAJOHHB3UF	1454998353431	8	Martha's cookies	llh	Martha knows whether Emily ate all of the cookies.	0	0	1	comp	0.38	7006	English	No	7	1
A16UAN46CNIRHY:345LHZDEDY0I0OJJRU8AUAJOHHB3UF	1454998419997	9	Swiss watch protoype testing	hlh	Torsten Steinmeier is not executing the tests on the prototype himself.	1	0	1	test_true	0.73	66564	English	No	7	1
A16UAN46CNIRHY:345LHZDEDY0I0OJJRU8AUAJOHHB3UF	1454998432270	10	Swiss watch protoype testing	hlh	It is important for Mr Papenhauser to know whether the prototype passed all of the tests scheduled for today.	1	0	1	rel	0.88	12270	English	No	7	1
A16UAN46CNIRHY:345LHZDEDY0I0OJJRU8AUAJOHHB3UF	1454998443754	11	rotten tomatoes	hll	Gilbert is the cleaning lady.	1	0	0	test_false	0	11482	English	No	7	1
A16UAN46CNIRHY:345LHZDEDY0I0OJJRU8AUAJOHHB3UF	1454998452382	12	rotten tomatoes	hll	All of the tomatoes are rotten.	1	0	0	prior	0.21	8625	English	No	7	1
A16UAN46CNIRHY:345LHZDEDY0I0OJJRU8AUAJOHHB3UF	1454998472009	13	stand-up comedy show	lll	Lennard is making plans for his early retirement.	0	0	0	test_uncertain	0.17	19625	English	No	7	1
A16UAN46CNIRHY:345LHZDEDY0I0OJJRU8AUAJOHHB3UF	1454998480210	14	stand-up comedy show	lll	From what Lennard said we may conclude that not all of the people who came yesterday also came to today's show.	0	0	0	imp	0.86	8199	English	No	7	1
A16UAN46CNIRHY:345LHZDEDY0I0OJJRU8AUAJOHHB3UF	1454998592053	15	gourmet desserts	lhh	Jeremy cares about good food.	0	0	1	test_true	0.7	111841	English	No	7	1
A16UAN46CNIRHY:345LHZDEDY0I0OJJRU8AUAJOHHB3UF	1454998599606	16	gourmet desserts	lhh	It is important for Jeremy to know whether all of their desserts are fantastic.	0	0	1	rel	0.31	7550	English	No	7	1
A177EXELDLWTWV:3ERMJ6L4DZ0HOZFXK4KEGHEA9WUM79	1454961259061	1	Martha's cookies	llh	Emily really enjoys chocolate.	0	0	1	test_true	0.93	13297	english	no	8	2
A177EXELDLWTWV:3ERMJ6L4DZ0HOZFXK4KEGHEA9WUM79	1454961263449	2	Martha's cookies	llh	From what Martha said we may conclude that Emily did not eat all of the cookies.	0	0	1	imp	0.14	4387	english	no	8	2
A177EXELDLWTWV:3ERMJ6L4DZ0HOZFXK4KEGHEA9WUM79	1454961363990	3	emails from a broken laptop	lll	Kate is working on a desktop computer.	0	0	0	test_false	0.82	100541	english	no	8	2
A177EXELDLWTWV:3ERMJ6L4DZ0HOZFXK4KEGHEA9WUM79	1454961366558	4	emails from a broken laptop	lll	It is important for Kate to know whether Joshua received all of her emails.	0	0	0	rel	0.78	2567	english	no	8	2
A177EXELDLWTWV:3ERMJ6L4DZ0HOZFXK4KEGHEA9WUM79	1454961388194	5	Harvard admission exams	hlh	Ethan is trying to get into an Ivy League university.	1	0	1	test_true	0.87	21636	english	no	8	2
A177EXELDLWTWV:3ERMJ6L4DZ0HOZFXK4KEGHEA9WUM79	1454961390442	6	Harvard admission exams	hlh	Eleanor knows whether Ethan passed all of the exams.	1	0	1	comp	0.11	2248	english	no	8	2
A177EXELDLWTWV:3ERMJ6L4DZ0HOZFXK4KEGHEA9WUM79	1454961401234	7	rotten tomatoes	hll	Gilbert is a former drug addict.	1	0	0	test_uncertain	0.12	10792	english	no	8	2
A177EXELDLWTWV:3ERMJ6L4DZ0HOZFXK4KEGHEA9WUM79	1454961404666	8	rotten tomatoes	hll	From what Gilbert said we may conclude that not all of the tomatoes are rotten.	1	0	0	imp	0.59	3432	english	no	8	2
A177EXELDLWTWV:3ERMJ6L4DZ0HOZFXK4KEGHEA9WUM79	1454961416162	9	underage drinking	lhl	There were underage patrons drinking whiskey.	0	1	0	test_uncertain	0.66	11496	english	no	8	2
A177EXELDLWTWV:3ERMJ6L4DZ0HOZFXK4KEGHEA9WUM79	1454961428385	10	underage drinking	lhl	Edward knows whether all of the patrons drinking alcohol were underage.	0	1	0	comp	0.63	12223	english	no	8	2
A177EXELDLWTWV:3ERMJ6L4DZ0HOZFXK4KEGHEA9WUM79	1454961435002	11	M&M's in the hospital	lhh	Aunt Bethany travelled a long distance to visit Henry in the hospital.	0	1	1	test_uncertain	0.58	6616	english	no	8	2
A177EXELDLWTWV:3ERMJ6L4DZ0HOZFXK4KEGHEA9WUM79	1454961437978	12	M&M's in the hospital	lhh	Henry liked all of the M&Ms.	0	1	1	prior	0.87	2976	english	no	8	2
A177EXELDLWTWV:3ERMJ6L4DZ0HOZFXK4KEGHEA9WUM79	1454961447390	13	hotel check	hhh	Harry has just inspected the San Diego hotel.	1	1	1	test_true	0.49	9411	english	no	8	2
A177EXELDLWTWV:3ERMJ6L4DZ0HOZFXK4KEGHEA9WUM79	1454961449103	14	hotel check	hhh	It is important for Mr Jaynes to know whether all of the rooms had working air conditioning.	1	1	1	rel	0.59	1712	english	no	8	2
A177EXELDLWTWV:3ERMJ6L4DZ0HOZFXK4KEGHEA9WUM79	1454961460247	15	NBA experts	hhl	Jason Barley and Greg Jones are on the payroll of the same sports equipment manufacturer.	1	1	0	test_uncertain	0.37	11143	english	no	8	2
A177EXELDLWTWV:3ERMJ6L4DZ0HOZFXK4KEGHEA9WUM79	1454961463454	16	NBA experts	hhl	Greg Jones secured victory for his team during the last seconds of all of the decisive playoff matches.	1	1	0	prior	0.58	3207	english	no	8	2
A17J1CE7N49Z9D:3AQF3RZ559QSEP9BF7B9FDU5HKZ6FO	1454962479951	1	schizophrenia talk	hll	Lucy's talk is unlikely to stir much commotion.	1	0	0	test_false	0.44	37996	english	NA	5	5
A17J1CE7N49Z9D:3AQF3RZ559QSEP9BF7B9FDU5HKZ6FO	1454962491502	2	schizophrenia talk	hll	Jacob knows whether all of the people enjoyed Lucy's talk.	1	0	0	comp	0.14	11549	english	NA	5	5
A17J1CE7N49Z9D:3AQF3RZ559QSEP9BF7B9FDU5HKZ6FO	1454962496502	3	M&M's in the hospital	lhh	Henry was involved in a skiing accident.	0	1	1	test_true	1	4937	english	NA	5	5
A17J1CE7N49Z9D:3AQF3RZ559QSEP9BF7B9FDU5HKZ6FO	1454962501245	4	M&M's in the hospital	lhh	Henry liked all of the M&Ms.	0	1	1	prior	0.53	4742	english	NA	5	5
A17J1CE7N49Z9D:3AQF3RZ559QSEP9BF7B9FDU5HKZ6FO	1454962505566	5	tail-donkey blindfold	hhl	Grace and Oliver are playing charades.	1	1	0	test_false	0	4319	english	NA	5	5
A17J1CE7N49Z9D:3AQF3RZ559QSEP9BF7B9FDU5HKZ6FO	1454962511525	6	tail-donkey blindfold	hhl	It is important for Grace to know whether she put all of the tails in the right place.	1	1	0	rel	0.47	5958	english	NA	5	5
A17J1CE7N49Z9D:3AQF3RZ559QSEP9BF7B9FDU5HKZ6FO	1454962516862	7	hotel check	hhh	Mr Jaynes is the manager of the San Diego hotel.	1	1	1	test_false	0.5	5336	english	NA	5	5
A17J1CE7N49Z9D:3AQF3RZ559QSEP9BF7B9FDU5HKZ6FO	1454962549356	8	hotel check	hhh	All of the rooms had working air conditioning.	1	1	1	prior	0.5	32492	english	NA	5	5
A17J1CE7N49Z9D:3AQF3RZ559QSEP9BF7B9FDU5HKZ6FO	1454962559396	9	stand-up comedy show	lll	Lennard is a salesman for karaoke machines.	0	0	0	test_false	0.5	10039	english	NA	5	5
A17J1CE7N49Z9D:3AQF3RZ559QSEP9BF7B9FDU5HKZ6FO	1454962575228	10	stand-up comedy show	lll	From what Lennard said we may conclude that not all of the people who came yesterday also came to today's show.	0	0	0	imp	0.82	15831	english	NA	5	5
A17J1CE7N49Z9D:3AQF3RZ559QSEP9BF7B9FDU5HKZ6FO	1454962581869	11	underage drinking	lhl	There were underage patrons drinking whiskey.	0	1	0	test_uncertain	1	6640	english	NA	5	5
A17J1CE7N49Z9D:3AQF3RZ559QSEP9BF7B9FDU5HKZ6FO	1454962587444	12	underage drinking	lhl	It is important for the owner of the bar to know whether all of the patrons drinking alcohol were underage.	0	1	0	rel	0.75	5573	english	NA	5	5
A17J1CE7N49Z9D:3AQF3RZ559QSEP9BF7B9FDU5HKZ6FO	1454962595724	13	Martha's cookies	llh	Martha had dinner with a friend.	0	0	1	test_false	0.15	8278	english	NA	5	5
A17J1CE7N49Z9D:3AQF3RZ559QSEP9BF7B9FDU5HKZ6FO	1454962601441	14	Martha's cookies	llh	From what Martha said we may conclude that Emily did not eat all of the cookies.	0	0	1	imp	1	5714	english	NA	5	5
A17J1CE7N49Z9D:3AQF3RZ559QSEP9BF7B9FDU5HKZ6FO	1454962607363	15	Swiss watch protoype testing	hlh	Testing of the prototype is finished.	1	0	1	test_false	0.45	5921	english	NA	5	5
A17J1CE7N49Z9D:3AQF3RZ559QSEP9BF7B9FDU5HKZ6FO	1454962610123	16	Swiss watch protoype testing	hlh	The apprentice knows whether the prototype passed all of the tests scheduled for today.	1	0	1	comp	0.5	2759	english	NA	5	5
A17VYOX4ECQO9X:34V1S5K3GT9JDFIYCLBH5H8UEM496Z	1454961294821	1	tail-donkey blindfold	hhl	Grace and Oliver are playing charades.	1	1	0	test_false	0	15356	English	NA	5	1
A17VYOX4ECQO9X:34V1S5K3GT9JDFIYCLBH5H8UEM496Z	1454961303476	2	tail-donkey blindfold	hhl	It is important for Grace to know whether she put all of the tails in the right place.	1	1	0	rel	0.64	8654	English	NA	5	1
A17VYOX4ECQO9X:34V1S5K3GT9JDFIYCLBH5H8UEM496Z	1454961341532	3	Swiss watch protoype testing	hlh	Torsten Steinmeier is not executing the tests on the prototype himself.	1	0	1	test_true	1	38056	English	NA	5	1
A17VYOX4ECQO9X:34V1S5K3GT9JDFIYCLBH5H8UEM496Z	1454961351900	4	Swiss watch protoype testing	hlh	From what the apprentice said we may conclude that the prototype did not pass all of the tests scheduled for today.	1	0	1	imp	0.6	10368	English	NA	5	1
A17VYOX4ECQO9X:34V1S5K3GT9JDFIYCLBH5H8UEM496Z	1454961369428	5	rotten tomatoes	hll	Ted is fully dedicated to serving high quality food.	1	0	0	test_true	0.77	17527	English	NA	5	1
A17VYOX4ECQO9X:34V1S5K3GT9JDFIYCLBH5H8UEM496Z	1454961383116	6	rotten tomatoes	hll	It is important for Ted to know whether all of the tomatoes are rotten.	1	0	0	rel	0.88	13687	English	NA	5	1
A17VYOX4ECQO9X:34V1S5K3GT9JDFIYCLBH5H8UEM496Z	1454961395396	7	van Gogh exhibition	lhl	The curator refused to talk to the mayor.	0	1	0	test_false	0	12280	English	NA	5	1
A17VYOX4ECQO9X:34V1S5K3GT9JDFIYCLBH5H8UEM496Z	1454961410308	8	van Gogh exhibition	lhl	From what the curator said we may conclude that not all of van Gogh's paintings are among the most valuable paintings in the world.	0	1	0	imp	0.47	14912	English	NA	5	1
A17VYOX4ECQO9X:34V1S5K3GT9JDFIYCLBH5H8UEM496Z	1454961423860	9	M&M's in the hospital	lhh	Aunt Bethany gave Henry only candy.	0	1	1	test_false	0	13552	English	NA	5	1
A17VYOX4ECQO9X:34V1S5K3GT9JDFIYCLBH5H8UEM496Z	1454961439508	10	M&M's in the hospital	lhh	Henry knows whether he liked all of the M&Ms.	0	1	1	comp	0.42	15647	English	NA	5	1
A17VYOX4ECQO9X:34V1S5K3GT9JDFIYCLBH5H8UEM496Z	1454961461771	11	Martha's cookies	llh	Martha had dinner with a friend.	0	0	1	test_false	0	22262	English	NA	5	1
A17VYOX4ECQO9X:34V1S5K3GT9JDFIYCLBH5H8UEM496Z	1454961477427	12	Martha's cookies	llh	Emily ate all of the cookies.	0	0	1	prior	0.46	15655	English	NA	5	1
A17VYOX4ECQO9X:34V1S5K3GT9JDFIYCLBH5H8UEM496Z	1454961503171	13	hotel check	hhh	Mr Jaynes is the manager of the San Diego hotel.	1	1	1	test_false	0.06	25743	English	NA	5	1
A17VYOX4ECQO9X:34V1S5K3GT9JDFIYCLBH5H8UEM496Z	1454961509244	14	hotel check	hhh	From what Harry said we may conclude that not all of the rooms had working air conditioning.	1	1	1	imp	0.59	6072	English	NA	5	1
A17VYOX4ECQO9X:34V1S5K3GT9JDFIYCLBH5H8UEM496Z	1454961535955	15	stand-up comedy show	lll	Lennard is popular in Seattle.	0	0	0	test_true	0.57	26710	English	NA	5	1
A17VYOX4ECQO9X:34V1S5K3GT9JDFIYCLBH5H8UEM496Z	1454961543883	16	stand-up comedy show	lll	All of the people who came yesterday also came to today's show.	0	0	0	prior	0	7927	English	NA	5	1
A19TL7AJ0FB1JG:3IXQG4FA2U6PJRZT8CSPGXUMSNEB9L	1454961585953	1	stand-up comedy show	lll	Lennard is making plans for his early retirement.	0	0	0	test_uncertain	0.01	8913	English	NA	10	5
A19TL7AJ0FB1JG:3IXQG4FA2U6PJRZT8CSPGXUMSNEB9L	1454961590832	2	stand-up comedy show	lll	All of the people who came yesterday also came to today's show.	0	0	0	prior	0.95	4875	English	NA	10	5
A19TL7AJ0FB1JG:3IXQG4FA2U6PJRZT8CSPGXUMSNEB9L	1454961595440	3	NBA experts	hhl	Greg Jones' team is in the playoffs of this year's NBA season.	1	1	0	test_true	0.76	4604	English	NA	10	5
A19TL7AJ0FB1JG:3IXQG4FA2U6PJRZT8CSPGXUMSNEB9L	1454961602982	4	NBA experts	hhl	Jason Barley knows whether Greg Jones secured victory for his team during the last seconds of all of the decisive playoff matches.	1	1	0	comp	1	7538	English	NA	10	5
A19TL7AJ0FB1JG:3IXQG4FA2U6PJRZT8CSPGXUMSNEB9L	1454961609431	5	Martha's cookies	llh	Martha is allergic to chocolate.	0	0	1	test_uncertain	0	6445	English	NA	10	5
A19TL7AJ0FB1JG:3IXQG4FA2U6PJRZT8CSPGXUMSNEB9L	1454961617898	6	Martha's cookies	llh	It is important for Martha's husband to know whether Emily ate all of the cookies.	0	0	1	rel	0.18	8463	English	NA	10	5
A19TL7AJ0FB1JG:3IXQG4FA2U6PJRZT8CSPGXUMSNEB9L	1454961626568	7	Swiss watch protoype testing	hlh	Testing of the prototype is finished.	1	0	1	test_false	0.05	8663	English	NA	10	5
A19TL7AJ0FB1JG:3IXQG4FA2U6PJRZT8CSPGXUMSNEB9L	1454961629986	8	Swiss watch protoype testing	hlh	From what the apprentice said we may conclude that the prototype did not pass all of the tests scheduled for today.	1	0	1	imp	0.15	3413	English	NA	10	5
A19TL7AJ0FB1JG:3IXQG4FA2U6PJRZT8CSPGXUMSNEB9L	1454961641917	9	schizophrenia talk	hll	Jacob works as a psychologist.	1	0	0	test_true	1	11923	English	NA	10	5
A19TL7AJ0FB1JG:3IXQG4FA2U6PJRZT8CSPGXUMSNEB9L	1454961647402	10	schizophrenia talk	hll	It is important for Lucy to know whether all of the people enjoyed her talk.	1	0	0	rel	0.67	5479	English	NA	10	5
A19TL7AJ0FB1JG:3IXQG4FA2U6PJRZT8CSPGXUMSNEB9L	1454961652160	11	M&M's in the hospital	lhh	Aunt Bethany gave Henry only candy.	0	1	1	test_false	0	4753	English	NA	10	5
A19TL7AJ0FB1JG:3IXQG4FA2U6PJRZT8CSPGXUMSNEB9L	1454961656454	12	M&M's in the hospital	lhh	From what Henry said we may conclude that he did not like all of the M&Ms.	0	1	1	imp	0.97	4290	English	NA	10	5
A19TL7AJ0FB1JG:3IXQG4FA2U6PJRZT8CSPGXUMSNEB9L	1454961661419	13	Star Trek expert quiz	hhh	Amber knows a lot about 'Star Trek'.	1	1	1	test_true	1	4961	English	NA	10	5
A19TL7AJ0FB1JG:3IXQG4FA2U6PJRZT8CSPGXUMSNEB9L	1454961665453	14	Star Trek expert quiz	hhh	George knows whether Amber got all of the answers right.	1	1	1	comp	0.96	4029	English	NA	10	5
A19TL7AJ0FB1JG:3IXQG4FA2U6PJRZT8CSPGXUMSNEB9L	1454961673931	15	underage drinking	lhl	The new laws on underage drinking are very strict.	0	1	0	test_true	0.27	8471	English	NA	10	5
A19TL7AJ0FB1JG:3IXQG4FA2U6PJRZT8CSPGXUMSNEB9L	1454961681772	16	underage drinking	lhl	All of the patrons drinking alcohol are underage.	0	1	0	prior	0.02	7831	English	NA	10	5
A1A3TGZ7DKJWRW:33F859I567LIYXHC6OGHTESAB0MBHB	1454963921351	1	Harvard admission exams	hlh	Eleanor passed some of her exams.	1	0	1	test_uncertain	1	18081	English	None	9	9
A1A3TGZ7DKJWRW:33F859I567LIYXHC6OGHTESAB0MBHB	1454963937783	2	Harvard admission exams	hlh	Eleanor knows whether Ethan passed all of the exams.	1	0	1	comp	0.05	16432	English	None	9	9
A1A3TGZ7DKJWRW:33F859I567LIYXHC6OGHTESAB0MBHB	1454963954462	3	rotten tomatoes	hll	Gilbert is the cleaning lady.	1	0	0	test_false	0	16678	English	None	9	9
A1A3TGZ7DKJWRW:33F859I567LIYXHC6OGHTESAB0MBHB	1454963960287	4	rotten tomatoes	hll	From what Gilbert said we may conclude that not all of the tomatoes are rotten.	1	0	0	imp	0.73	5824	English	None	9	9
A1A3TGZ7DKJWRW:33F859I567LIYXHC6OGHTESAB0MBHB	1454963983702	5	gift unwrapping	lhh	Suzanne attended Leonard's birthday party.	0	1	1	test_true	1	23414	English	None	9	9
A1A3TGZ7DKJWRW:33F859I567LIYXHC6OGHTESAB0MBHB	1454963990498	6	gift unwrapping	lhh	It is important for Suzanne's mother to know whether Leonard unwrapped all of the presents right away.	0	1	1	rel	0.1	6795	English	None	9	9
A1A3TGZ7DKJWRW:33F859I567LIYXHC6OGHTESAB0MBHB	1454964011126	7	underage drinking	lhl	The bar can stay open after Edward's visit.	0	1	0	test_false	0.5	20627	English	None	9	9
A1A3TGZ7DKJWRW:33F859I567LIYXHC6OGHTESAB0MBHB	1454964015046	8	underage drinking	lhl	All of the patrons drinking alcohol are underage.	0	1	0	prior	0.12	3919	English	None	9	9
A1A3TGZ7DKJWRW:33F859I567LIYXHC6OGHTESAB0MBHB	1454964055342	9	emails from a broken laptop	lll	Kate has difficulties sending emails.	0	0	0	test_true	0.07	40295	English	None	9	9
A1A3TGZ7DKJWRW:33F859I567LIYXHC6OGHTESAB0MBHB	1454964059391	10	emails from a broken laptop	lll	Joshua knows whether he received all of Kate's emails.	0	0	0	comp	0.12	4048	English	None	9	9
A1A3TGZ7DKJWRW:33F859I567LIYXHC6OGHTESAB0MBHB	1454964070231	11	Star Trek expert quiz	hhh	Amber won the game.	1	1	1	test_uncertain	0.13	10840	English	None	9	9
A1A3TGZ7DKJWRW:33F859I567LIYXHC6OGHTESAB0MBHB	1454964074558	12	Star Trek expert quiz	hhh	From what George said we may conclude that Amber did not get all of the answers right.	1	1	1	imp	0.8	4327	English	None	9	9
A1A3TGZ7DKJWRW:33F859I567LIYXHC6OGHTESAB0MBHB	1454964120756	13	NBA experts	hhl	Jason Barley and Richard Trellis have been close friends for almost three decades.	1	1	0	test_false	0.5	46197	English	None	9	9
A1A3TGZ7DKJWRW:33F859I567LIYXHC6OGHTESAB0MBHB	1454964135526	14	NBA experts	hhl	It is important for Richard Trellis to know whether Greg Jones secured victory for his team during the last seconds of all of the decisive playoff matches.	1	1	0	rel	0.17	14769	English	None	9	9
A1A3TGZ7DKJWRW:33F859I567LIYXHC6OGHTESAB0MBHB	1454964156262	15	Martha's cookies	llh	Martha had dinner with a friend.	0	0	1	test_false	0.13	20735	English	None	9	9
A1A3TGZ7DKJWRW:33F859I567LIYXHC6OGHTESAB0MBHB	1454964161742	16	Martha's cookies	llh	Emily ate all of the cookies.	0	0	1	prior	0.52	5479	English	None	9	9
A1A7U8TF7JAMGN:3X08E93BHWQWVWG0EE85L7HSOLV66K	1454961218473	1	stand-up comedy show	lll	Lennard is making plans for his early retirement.	0	0	0	test_uncertain	0.44	32187	english	none	8	2
A1A7U8TF7JAMGN:3X08E93BHWQWVWG0EE85L7HSOLV66K	1454961236216	2	stand-up comedy show	lll	Lennard knows whether all of the people who came yesterday also came to today's show.	0	0	0	comp	0.86	17742	english	none	8	2
A1A7U8TF7JAMGN:3X08E93BHWQWVWG0EE85L7HSOLV66K	1454961249960	3	gourmet desserts	lhh	Jeremy cares about good food.	0	0	1	test_true	1	13743	english	none	8	2
A1A7U8TF7JAMGN:3X08E93BHWQWVWG0EE85L7HSOLV66K	1454961268751	4	gourmet desserts	lhh	From what Claire said we may conclude that not all of the restaurant's desserts are fantastic.	0	0	1	imp	0.7	18791	english	none	8	2
A1A7U8TF7JAMGN:3X08E93BHWQWVWG0EE85L7HSOLV66K	1454961292775	5	underage drinking	lhl	The bar can stay open after Edward's visit.	0	1	0	test_false	0	24023	english	none	8	2
A1A7U8TF7JAMGN:3X08E93BHWQWVWG0EE85L7HSOLV66K	1454961314855	6	underage drinking	lhl	Edward knows whether all of the patrons drinking alcohol were underage.	0	1	0	comp	1	22079	english	none	8	2
A1A7U8TF7JAMGN:3X08E93BHWQWVWG0EE85L7HSOLV66K	1454961343407	7	Swiss watch protoype testing	hlh	The company uses spare parts imported from Malaysia.	1	0	1	test_uncertain	0.5	28552	english	none	8	2
A1A7U8TF7JAMGN:3X08E93BHWQWVWG0EE85L7HSOLV66K	1454961370479	8	Swiss watch protoype testing	hlh	It is important for Mr Papenhauser to know whether the prototype passed all of the tests scheduled for today.	1	0	1	rel	0.15	27071	english	none	8	2
A1A7U8TF7JAMGN:3X08E93BHWQWVWG0EE85L7HSOLV66K	1454961392119	9	schizophrenia talk	hll	Lucy's talk is unlikely to stir much commotion.	1	0	0	test_false	0	21639	english	none	8	2
A1A7U8TF7JAMGN:3X08E93BHWQWVWG0EE85L7HSOLV66K	1454961407104	10	schizophrenia talk	hll	All of the people enjoyed Lucy's talk.	1	0	0	prior	0.5	14984	english	none	8	2
A1A7U8TF7JAMGN:3X08E93BHWQWVWG0EE85L7HSOLV66K	1454961435223	11	hotel check	hhh	Mr Jaynes is the manager of the San Diego hotel.	1	1	1	test_false	0	28118	english	none	8	2
A1A7U8TF7JAMGN:3X08E93BHWQWVWG0EE85L7HSOLV66K	1454961441789	12	hotel check	hhh	From what Harry said we may conclude that not all of the rooms had working air conditioning.	1	1	1	imp	1	6565	english	none	8	2
A1A7U8TF7JAMGN:3X08E93BHWQWVWG0EE85L7HSOLV66K	1454961466671	13	NBA experts	hhl	Jason Barley and Greg Jones are on the payroll of the same sports equipment manufacturer.	1	1	0	test_uncertain	0.5	24881	english	none	8	2
A1A7U8TF7JAMGN:3X08E93BHWQWVWG0EE85L7HSOLV66K	1454961478751	14	NBA experts	hhl	It is important for Richard Trellis to know whether Greg Jones secured victory for his team during the last seconds of all of the decisive playoff matches.	1	1	0	rel	0.89	12079	english	none	8	2
A1A7U8TF7JAMGN:3X08E93BHWQWVWG0EE85L7HSOLV66K	1454961497207	15	Martha's cookies	llh	Emily really enjoys chocolate.	0	0	1	test_true	1	18455	english	none	8	2
A1A7U8TF7JAMGN:3X08E93BHWQWVWG0EE85L7HSOLV66K	1454961503239	16	Martha's cookies	llh	From what Martha said we may conclude that Emily did not eat all of the cookies.	0	0	1	imp	1	6031	english	none	8	2
A1BQCRF5Q76YFY:3LPW2N6LKUALE36N5DW397H8VCQU5I	1454944168258	1	Martha's cookies	llh	Martha had dinner with a friend.	0	0	1	test_false	1	12347	english	NA	10	3
A1BQCRF5Q76YFY:3LPW2N6LKUALE36N5DW397H8VCQU5I	1454944175446	2	Martha's cookies	llh	From what Martha said we may conclude that Emily did not eat all of the cookies.	0	0	1	imp	1	7187	english	NA	10	3
A1BQCRF5Q76YFY:3LPW2N6LKUALE36N5DW397H8VCQU5I	1454944190831	3	Harvard admission exams	hlh	Eleanor passed some of her exams.	1	0	1	test_uncertain	0.18	15384	english	NA	10	3
A1BQCRF5Q76YFY:3LPW2N6LKUALE36N5DW397H8VCQU5I	1454944195633	4	Harvard admission exams	hlh	Eleanor knows whether Ethan passed all of the exams.	1	0	1	comp	0.61	4801	english	NA	10	3
A1BQCRF5Q76YFY:3LPW2N6LKUALE36N5DW397H8VCQU5I	1454944212200	5	NBA experts	hhl	Jason Barley and Richard Trellis have been close friends for almost three decades.	1	1	0	test_false	0.08	16566	english	NA	10	3
A1BQCRF5Q76YFY:3LPW2N6LKUALE36N5DW397H8VCQU5I	1454944220904	6	NBA experts	hhl	It is important for Richard Trellis to know whether Greg Jones secured victory for his team during the last seconds of all of the decisive playoff matches.	1	1	0	rel	0.63	8703	english	NA	10	3
A1BQCRF5Q76YFY:3LPW2N6LKUALE36N5DW397H8VCQU5I	1454944233447	7	schizophrenia talk	hll	Lucy's talk is unlikely to stir much commotion.	1	0	0	test_false	0.58	12542	english	NA	10	3
A1BQCRF5Q76YFY:3LPW2N6LKUALE36N5DW397H8VCQU5I	1454944237039	8	schizophrenia talk	hll	From what Jacob said we may conclude that not all of the people enjoyed Lucy's talk.	1	0	0	imp	0.99	3591	english	NA	10	3
A1BQCRF5Q76YFY:3LPW2N6LKUALE36N5DW397H8VCQU5I	1454944252677	9	Star Trek expert quiz	hhh	Amber won the game.	1	1	1	test_uncertain	0.37	15637	english	NA	10	3
A1BQCRF5Q76YFY:3LPW2N6LKUALE36N5DW397H8VCQU5I	1454944257494	10	Star Trek expert quiz	hhh	Amber got all of the questions right.	1	1	1	prior	0.16	4815	english	NA	10	3
A1BQCRF5Q76YFY:3LPW2N6LKUALE36N5DW397H8VCQU5I	1454944266453	11	M&M's in the hospital	lhh	Aunt Bethany gave Henry only candy.	0	1	1	test_false	0.05	8958	english	NA	10	3
A1BQCRF5Q76YFY:3LPW2N6LKUALE36N5DW397H8VCQU5I	1454944273426	12	M&M's in the hospital	lhh	It is important for Henry's father to know whether Henry liked all of the M&Ms.	0	1	1	rel	0.09	6972	english	NA	10	3
A1BQCRF5Q76YFY:3LPW2N6LKUALE36N5DW397H8VCQU5I	1454944284022	13	emails from a broken laptop	lll	Kate is working on a desktop computer.	0	0	0	test_false	0.21	10594	english	NA	10	3
A1BQCRF5Q76YFY:3LPW2N6LKUALE36N5DW397H8VCQU5I	1454944289474	14	emails from a broken laptop	lll	From what Joshua said we may conclude that he did not receive all of Kate's emails.	0	0	0	imp	0.99	5451	english	NA	10	3
A1BQCRF5Q76YFY:3LPW2N6LKUALE36N5DW397H8VCQU5I	1454944296425	15	van Gogh exhibition	lhl	The van Gogh exhibition is an important event for the city.	0	1	0	test_true	1	6950	english	NA	10	3
A1BQCRF5Q76YFY:3LPW2N6LKUALE36N5DW397H8VCQU5I	1454944304943	16	van Gogh exhibition	lhl	The curator knows whether all of van Gogh's paintings are among the most valuable paintings in the world.	0	1	0	comp	1	8517	english	NA	10	3
A1BXEU20OCUGVZ:3MTMREQS4WQVCD79V92LZ6IR87DWA2	1454998245915	1	schizophrenia talk	hll	Lucy is really nervous about the talk. 	1	0	0	test_uncertain	0.78	32146	English	No.	5	3
A1BXEU20OCUGVZ:3MTMREQS4WQVCD79V92LZ6IR87DWA2	1454998271720	2	schizophrenia talk	hll	From what Jacob said we may conclude that not all of the people enjoyed Lucy's talk.	1	0	0	imp	0.87	25803	English	No.	5	3
A1BXEU20OCUGVZ:3MTMREQS4WQVCD79V92LZ6IR87DWA2	1454998345289	3	Martha's cookies	llh	Martha had dinner with a friend.	0	0	1	test_false	1	73566	English	No.	5	3
A1BXEU20OCUGVZ:3MTMREQS4WQVCD79V92LZ6IR87DWA2	1454998353902	4	Martha's cookies	llh	Emily ate all of the cookies.	0	0	1	prior	0.81	8611	English	No.	5	3
A1BXEU20OCUGVZ:3MTMREQS4WQVCD79V92LZ6IR87DWA2	1454998384026	5	stand-up comedy show	lll	Lennard is popular in Seattle.	0	0	0	test_true	1	30123	English	No.	5	3
A1BXEU20OCUGVZ:3MTMREQS4WQVCD79V92LZ6IR87DWA2	1454998394501	6	stand-up comedy show	lll	From what Lennard said we may conclude that not all of the people who came yesterday also came to today's show.	0	0	0	imp	0.86	10474	English	No.	5	3
A1BXEU20OCUGVZ:3MTMREQS4WQVCD79V92LZ6IR87DWA2	1454998445654	7	gift unwrapping	lhh	Suzanne attended Leonard's birthday party.	0	1	1	test_true	1	51152	English	No.	5	3
A1BXEU20OCUGVZ:3MTMREQS4WQVCD79V92LZ6IR87DWA2	1454998461774	8	gift unwrapping	lhh	Leonard's mother knows whether Leonard unwrapped all of the presents right away.	0	1	1	comp	0.88	16119	English	No.	5	3
A1BXEU20OCUGVZ:3MTMREQS4WQVCD79V92LZ6IR87DWA2	1454998512206	9	Harvard admission exams	hlh	Eleanor passed some of her exams.	1	0	1	test_uncertain	0.75	50430	English	No.	5	3
A1BXEU20OCUGVZ:3MTMREQS4WQVCD79V92LZ6IR87DWA2	1454998521861	10	Harvard admission exams	hlh	It is important for Ethan to know whether he passed all of the exams.	1	0	1	rel	1	9654	English	No.	5	3
A1BXEU20OCUGVZ:3MTMREQS4WQVCD79V92LZ6IR87DWA2	1454998573689	11	Star Trek expert quiz	hhh	George asked ten questions about 'Star Wars'.	1	1	1	test_false	1	51827	English	No.	5	3
A1BXEU20OCUGVZ:3MTMREQS4WQVCD79V92LZ6IR87DWA2	1454998602273	12	Star Trek expert quiz	hhh	George knows whether Amber got all of the answers right.	1	1	1	comp	1	28582	English	No.	5	3
A1BXEU20OCUGVZ:3MTMREQS4WQVCD79V92LZ6IR87DWA2	1454998635527	13	underage drinking	lhl	There were underage patrons drinking whiskey.	0	1	0	test_uncertain	0.15	33252	English	No.	5	3
A1BXEU20OCUGVZ:3MTMREQS4WQVCD79V92LZ6IR87DWA2	1454998643675	14	underage drinking	lhl	All of the patrons drinking alcohol are underage.	0	1	0	prior	0	8147	English	No.	5	3
A1BXEU20OCUGVZ:3MTMREQS4WQVCD79V92LZ6IR87DWA2	1454998673807	15	tail-donkey blindfold	hhl	Grace is unable to see where she has to pin the tails.	1	1	0	test_true	1	30131	English	No.	5	3
A1BXEU20OCUGVZ:3MTMREQS4WQVCD79V92LZ6IR87DWA2	1454998696104	16	tail-donkey blindfold	hhl	It is important for Grace to know whether she put all of the tails in the right place.	1	1	0	rel	0.78	22297	English	No.	5	3
A1C0H8G0YI15MN:3FE2ERCCZYGUU849T6T887U04QFOPX	1454961322814	1	emails from a broken laptop	lll	Kate has difficulties sending emails.	0	0	0	test_true	0.64	44669	English	no	8	6
A1C0H8G0YI15MN:3FE2ERCCZYGUU849T6T887U04QFOPX	1454961367879	2	emails from a broken laptop	lll	From what Joshua said we may conclude that he did not receive all of Kate's emails.	0	0	0	imp	0.55	45064	English	no	8	6
A1C0H8G0YI15MN:3FE2ERCCZYGUU849T6T887U04QFOPX	1454961430167	3	rotten tomatoes	hll	Gilbert is a former drug addict.	1	0	0	test_uncertain	0.41	62287	English	no	8	6
A1C0H8G0YI15MN:3FE2ERCCZYGUU849T6T887U04QFOPX	1454961444032	4	rotten tomatoes	hll	It is important for Ted to know whether all of the tomatoes are rotten.	1	0	0	rel	0.75	13865	English	no	8	6
A1C0H8G0YI15MN:3FE2ERCCZYGUU849T6T887U04QFOPX	1454961488158	5	gift unwrapping	lhh	Leonard's mother was abroad and could therefore not attend the birthday party.	0	1	1	test_false	0	44125	English	no	8	6
A1C0H8G0YI15MN:3FE2ERCCZYGUU849T6T887U04QFOPX	1454961498930	6	gift unwrapping	lhh	From what Leonard's mother said we may conclude that Leonard did not unwrap all of the presents right away.	0	1	1	imp	0.82	10771	English	no	8	6
A1C0H8G0YI15MN:3FE2ERCCZYGUU849T6T887U04QFOPX	1454961529429	7	underage drinking	lhl	The bar can stay open after Edward's visit.	0	1	0	test_false	0.58	30496	English	no	8	6
A1C0H8G0YI15MN:3FE2ERCCZYGUU849T6T887U04QFOPX	1454961543080	8	underage drinking	lhl	All of the patrons drinking alcohol are underage.	0	1	0	prior	0	13646	English	no	8	6
A1C0H8G0YI15MN:3FE2ERCCZYGUU849T6T887U04QFOPX	1454961567873	9	Martha's cookies	llh	Emily really enjoys chocolate.	0	0	1	test_true	0.7	24793	English	no	8	6
A1C0H8G0YI15MN:3FE2ERCCZYGUU849T6T887U04QFOPX	1454961576329	10	Martha's cookies	llh	It is important for Martha's husband to know whether Emily ate all of the cookies.	0	0	1	rel	0.22	8456	English	no	8	6
A1C0H8G0YI15MN:3FE2ERCCZYGUU849T6T887U04QFOPX	1454961593555	11	tail-donkey blindfold	hhl	Grace and Oliver are playing charades.	1	1	0	test_false	0	17225	English	no	8	6
A1C0H8G0YI15MN:3FE2ERCCZYGUU849T6T887U04QFOPX	1454961602342	12	tail-donkey blindfold	hhl	From what Oliver said we may conclude that Grace did not put all of the tails in the right place.	1	1	0	imp	0.84	8786	English	no	8	6
A1C0H8G0YI15MN:3FE2ERCCZYGUU849T6T887U04QFOPX	1454961632885	13	Star Trek expert quiz	hhh	Amber knows a lot about 'Star Trek'.	1	1	1	test_true	0.24	30541	English	no	8	6
A1C0H8G0YI15MN:3FE2ERCCZYGUU849T6T887U04QFOPX	1454961643174	14	Star Trek expert quiz	hhh	George knows whether Amber got all of the answers right.	1	1	1	comp	0.94	10287	English	no	8	6
A1C0H8G0YI15MN:3FE2ERCCZYGUU849T6T887U04QFOPX	1454961660879	15	Harvard admission exams	hlh	Ethan is trying to get into an Ivy League university.	1	0	1	test_true	0.99	17705	English	no	8	6
A1C0H8G0YI15MN:3FE2ERCCZYGUU849T6T887U04QFOPX	1454961677270	16	Harvard admission exams	hlh	From what Eleanor said we may conclude that Ethan did not pass all of the exams.	1	0	1	imp	0.29	16391	English	no	8	6
A1CE2XPYCDRHVZ:3Z3ZLGNNSJ2Q8VC2ALO5K9MZEW53QA	1454999143218	1	gourmet desserts	lhh	Jeremy cares about good food.	0	0	1	test_true	0.75	6329	English	NA	9	4
A1CE2XPYCDRHVZ:3Z3ZLGNNSJ2Q8VC2ALO5K9MZEW53QA	1454999147492	2	gourmet desserts	lhh	All of the restaurant's desserts are fantastic.	0	0	1	prior	0.55	4273	English	NA	9	4
A1CE2XPYCDRHVZ:3Z3ZLGNNSJ2Q8VC2ALO5K9MZEW53QA	1454999159592	3	Martha's cookies	llh	Martha is allergic to chocolate.	0	0	1	test_uncertain	0.54	12099	English	NA	9	4
A1CE2XPYCDRHVZ:3Z3ZLGNNSJ2Q8VC2ALO5K9MZEW53QA	1454999165514	4	Martha's cookies	llh	It is important for Martha's husband to know whether Emily ate all of the cookies.	0	0	1	rel	0.62	5921	English	NA	9	4
A1CE2XPYCDRHVZ:3Z3ZLGNNSJ2Q8VC2ALO5K9MZEW53QA	1454999177656	5	emails from a broken laptop	lll	Kate has difficulties sending emails.	0	0	0	test_true	0.7	12141	English	NA	9	4
A1CE2XPYCDRHVZ:3Z3ZLGNNSJ2Q8VC2ALO5K9MZEW53QA	1454999185386	6	emails from a broken laptop	lll	Joshua knows whether he received all of Kate's emails.	0	0	0	comp	0.87	7729	English	NA	9	4
A1CE2XPYCDRHVZ:3Z3ZLGNNSJ2Q8VC2ALO5K9MZEW53QA	1454999196236	7	Star Trek expert quiz	hhh	George asked ten questions about 'Star Wars'.	1	1	1	test_false	0	10848	English	NA	9	4
A1CE2XPYCDRHVZ:3Z3ZLGNNSJ2Q8VC2ALO5K9MZEW53QA	1454999201026	8	Star Trek expert quiz	hhh	Amber got all of the questions right.	1	1	1	prior	0.67	4785	English	NA	9	4
A1CE2XPYCDRHVZ:3Z3ZLGNNSJ2Q8VC2ALO5K9MZEW53QA	1454999206526	9	van Gogh exhibition	lhl	The curator refused to talk to the mayor.	0	1	0	test_false	0	5499	English	NA	9	4
A1CE2XPYCDRHVZ:3Z3ZLGNNSJ2Q8VC2ALO5K9MZEW53QA	1454999212146	10	van Gogh exhibition	lhl	From what the curator said we may conclude that not all of van Gogh's paintings are among the most valuable paintings in the world.	0	1	0	imp	0.92	5619	English	NA	9	4
A1CE2XPYCDRHVZ:3Z3ZLGNNSJ2Q8VC2ALO5K9MZEW53QA	1454999217918	11	rotten tomatoes	hll	Gilbert is the cleaning lady.	1	0	0	test_false	0	5771	English	NA	9	4
A1CE2XPYCDRHVZ:3Z3ZLGNNSJ2Q8VC2ALO5K9MZEW53QA	1454999221430	12	rotten tomatoes	hll	Gilbert knows whether all of the tomatoes are rotten.	1	0	0	comp	0.97	3511	English	NA	9	4
A1CE2XPYCDRHVZ:3Z3ZLGNNSJ2Q8VC2ALO5K9MZEW53QA	1454999234089	13	Swiss watch protoype testing	hlh	Testing of the prototype is finished.	1	0	1	test_false	0	12658	English	NA	9	4
A1CE2XPYCDRHVZ:3Z3ZLGNNSJ2Q8VC2ALO5K9MZEW53QA	1454999239901	14	Swiss watch protoype testing	hlh	From what the apprentice said we may conclude that the prototype did not pass all of the tests scheduled for today.	1	0	1	imp	0.82	5812	English	NA	9	4
A1CE2XPYCDRHVZ:3Z3ZLGNNSJ2Q8VC2ALO5K9MZEW53QA	1454999250899	15	NBA experts	hhl	Jason Barley and Richard Trellis have been close friends for almost three decades.	1	1	0	test_false	0.42	10997	English	NA	9	4
A1CE2XPYCDRHVZ:3Z3ZLGNNSJ2Q8VC2ALO5K9MZEW53QA	1454999260537	16	NBA experts	hhl	It is important for Richard Trellis to know whether Greg Jones secured victory for his team during the last seconds of all of the decisive playoff matches.	1	1	0	rel	0.79	9637	English	NA	9	4
A1CULUG66VHO3A:3Z7VU45IPZP3CKZEADTZN9J6LECZ16	1454961293769	1	van Gogh exhibition	lhl	The curator refused to talk to the mayor.	0	1	0	test_false	0.39	24586	english	NA	7	2
A1CULUG66VHO3A:3Z7VU45IPZP3CKZEADTZN9J6LECZ16	1454961303571	2	van Gogh exhibition	lhl	It is important for the mayor to know whether all of van Gogh's paintings are among the most valuable paintings in the world.	0	1	0	rel	0.19	9800	english	NA	7	2
A1CULUG66VHO3A:3Z7VU45IPZP3CKZEADTZN9J6LECZ16	1454961328493	3	Martha's cookies	llh	Martha is allergic to chocolate.	0	0	1	test_uncertain	0.55	24920	english	NA	7	2
A1CULUG66VHO3A:3Z7VU45IPZP3CKZEADTZN9J6LECZ16	1454961336649	4	Martha's cookies	llh	Emily ate all of the cookies.	0	0	1	prior	0.52	8154	english	NA	7	2
A1CULUG66VHO3A:3Z7VU45IPZP3CKZEADTZN9J6LECZ16	1454961370853	5	Star Trek expert quiz	hhh	George asked ten questions about 'Star Wars'.	1	1	1	test_false	1	34203	english	NA	7	2
A1CULUG66VHO3A:3Z7VU45IPZP3CKZEADTZN9J6LECZ16	1454961377198	6	Star Trek expert quiz	hhh	George knows whether Amber got all of the answers right.	1	1	1	comp	0.58	6344	english	NA	7	2
A1CULUG66VHO3A:3Z7VU45IPZP3CKZEADTZN9J6LECZ16	1454961397249	7	Harvard admission exams	hlh	Ethan failed to study intensively for his exams.	1	0	1	test_false	0.46	20048	english	NA	7	2
A1CULUG66VHO3A:3Z7VU45IPZP3CKZEADTZN9J6LECZ16	1454961421524	8	Harvard admission exams	hlh	From what Eleanor said we may conclude that Ethan did not pass all of the exams.	1	0	1	imp	0.5	24274	english	NA	7	2
A1CULUG66VHO3A:3Z7VU45IPZP3CKZEADTZN9J6LECZ16	1454961433497	9	rotten tomatoes	hll	Gilbert is a former drug addict.	1	0	0	test_uncertain	0.32	11971	english	NA	7	2
A1CULUG66VHO3A:3Z7VU45IPZP3CKZEADTZN9J6LECZ16	1454961443136	10	rotten tomatoes	hll	All of the tomatoes are rotten.	1	0	0	prior	0.32	9637	english	NA	7	2
A1CULUG66VHO3A:3Z7VU45IPZP3CKZEADTZN9J6LECZ16	1454961455651	11	NBA experts	hhl	Jason Barley and Richard Trellis have been close friends for almost three decades.	1	1	0	test_false	0.46	12514	english	NA	7	2
A1CULUG66VHO3A:3Z7VU45IPZP3CKZEADTZN9J6LECZ16	1454961468029	12	NBA experts	hhl	Jason Barley knows whether Greg Jones secured victory for his team during the last seconds of all of the decisive playoff matches.	1	1	0	comp	0.56	12377	english	NA	7	2
A1CULUG66VHO3A:3Z7VU45IPZP3CKZEADTZN9J6LECZ16	1454961484229	13	gourmet desserts	lhh	Jeremy cares about good food.	0	0	1	test_true	0.72	16198	english	NA	7	2
A1CULUG66VHO3A:3Z7VU45IPZP3CKZEADTZN9J6LECZ16	1454961489526	14	gourmet desserts	lhh	It is important for Jeremy to know whether all of their desserts are fantastic.	0	0	1	rel	0.71	5295	english	NA	7	2
A1CULUG66VHO3A:3Z7VU45IPZP3CKZEADTZN9J6LECZ16	1454961506669	15	stand-up comedy show	lll	Lennard is making plans for his early retirement.	0	0	0	test_uncertain	0.38	17141	english	NA	7	2
A1CULUG66VHO3A:3Z7VU45IPZP3CKZEADTZN9J6LECZ16	1454961516353	16	stand-up comedy show	lll	From what Lennard said we may conclude that not all of the people who came yesterday also came to today's show.	0	0	0	imp	1	9683	english	NA	7	2
A1CUTEZJIWM0UU:3CP1TO84PU9CURXLMTMX3OMGCMJ25M	1454998322292	1	van Gogh exhibition	lhl	The van Gogh exhibition is an important event for the city.	0	1	0	test_true	0.99	42897	English	NA	10	5
A1CUTEZJIWM0UU:3CP1TO84PU9CURXLMTMX3OMGCMJ25M	1454998328791	2	van Gogh exhibition	lhl	The curator knows whether all of van Gogh's paintings are among the most valuable paintings in the world.	0	1	0	comp	0.96	6498	English	NA	10	5
A1CUTEZJIWM0UU:3CP1TO84PU9CURXLMTMX3OMGCMJ25M	1454998403527	3	Swiss watch protoype testing	hlh	Testing of the prototype is finished.	1	0	1	test_false	0.68	74733	English	NA	10	5
A1CUTEZJIWM0UU:3CP1TO84PU9CURXLMTMX3OMGCMJ25M	1454998412468	4	Swiss watch protoype testing	hlh	From what the apprentice said we may conclude that the prototype did not pass all of the tests scheduled for today.	1	0	1	imp	0.31	8938	English	NA	10	5
A1CUTEZJIWM0UU:3CP1TO84PU9CURXLMTMX3OMGCMJ25M	1454998431900	5	gourmet desserts	lhh	Jeremy is madly in love with Claire.	0	0	1	test_uncertain	0	19429	English	NA	10	5
A1CUTEZJIWM0UU:3CP1TO84PU9CURXLMTMX3OMGCMJ25M	1454998437140	6	gourmet desserts	lhh	It is important for Jeremy to know whether all of their desserts are fantastic.	0	0	1	rel	0.57	5238	English	NA	10	5
A1CUTEZJIWM0UU:3CP1TO84PU9CURXLMTMX3OMGCMJ25M	1454998458531	7	Martha's cookies	llh	Martha is allergic to chocolate.	0	0	1	test_uncertain	0	21390	English	NA	10	5
A1CUTEZJIWM0UU:3CP1TO84PU9CURXLMTMX3OMGCMJ25M	1454998465219	8	Martha's cookies	llh	Martha knows whether Emily ate all of the cookies.	0	0	1	comp	0.35	6687	English	NA	10	5
A1CUTEZJIWM0UU:3CP1TO84PU9CURXLMTMX3OMGCMJ25M	1454998516412	9	NBA experts	hhl	Jason Barley and Richard Trellis have been close friends for almost three decades.	1	1	0	test_false	0.43	51191	English	NA	10	5
A1CUTEZJIWM0UU:3CP1TO84PU9CURXLMTMX3OMGCMJ25M	1454998530809	10	NBA experts	hhl	It is important for Richard Trellis to know whether Greg Jones secured victory for his team during the last seconds of all of the decisive playoff matches.	1	1	0	rel	0.4	14395	English	NA	10	5
A1CUTEZJIWM0UU:3CP1TO84PU9CURXLMTMX3OMGCMJ25M	1454998561394	11	hotel check	hhh	Harry has just inspected the San Diego hotel.	1	1	1	test_true	0.93	30583	English	NA	10	5
A1CUTEZJIWM0UU:3CP1TO84PU9CURXLMTMX3OMGCMJ25M	1454998572440	12	hotel check	hhh	All of the rooms had working air conditioning.	1	1	1	prior	0.52	11044	English	NA	10	5
A1CUTEZJIWM0UU:3CP1TO84PU9CURXLMTMX3OMGCMJ25M	1454998599959	13	schizophrenia talk	hll	Jacob works as a psychologist.	1	0	0	test_true	1	27517	English	NA	10	5
A1CUTEZJIWM0UU:3CP1TO84PU9CURXLMTMX3OMGCMJ25M	1454998607430	14	schizophrenia talk	hll	From what Jacob said we may conclude that not all of the people enjoyed Lucy's talk.	1	0	0	imp	0.74	7470	English	NA	10	5
A1CUTEZJIWM0UU:3CP1TO84PU9CURXLMTMX3OMGCMJ25M	1454998622782	15	stand-up comedy show	lll	Lennard is making plans for his early retirement.	0	0	0	test_uncertain	0	15350	English	NA	10	5
A1CUTEZJIWM0UU:3CP1TO84PU9CURXLMTMX3OMGCMJ25M	1454998629862	16	stand-up comedy show	lll	All of the people who came yesterday also came to today's show.	0	0	0	prior	0	7078	English	NA	10	5
A1D49NVJ3PJDJ2:3KXIR214I5OUY8TL8O3NYWG2CPB424	1454943257864	1	NBA experts	hhl	Jason Barley and Greg Jones are on the payroll of the same sports equipment manufacturer.	1	1	0	test_uncertain	0.52	1731	English	NA	10	3
A1D49NVJ3PJDJ2:3KXIR214I5OUY8TL8O3NYWG2CPB424	1454943260608	2	NBA experts	hhl	Greg Jones secured victory for his team during the last seconds of all of the decisive playoff matches.	1	1	0	prior	0.53	2741	English	NA	10	3
A1D49NVJ3PJDJ2:3KXIR214I5OUY8TL8O3NYWG2CPB424	1454943261365	3	stand-up comedy show	lll	Lennard is making plans for his early retirement.	0	0	0	test_uncertain	0.55	756	English	NA	10	3
A1D49NVJ3PJDJ2:3KXIR214I5OUY8TL8O3NYWG2CPB424	1454943262241	4	stand-up comedy show	lll	It is important for Lennard's wife to know whether all of the people who came yesterday also came to today's show.	0	0	0	rel	0.55	874	English	NA	10	3
A1D49NVJ3PJDJ2:3KXIR214I5OUY8TL8O3NYWG2CPB424	1454943263622	5	underage drinking	lhl	There were underage patrons drinking whiskey.	0	1	0	test_uncertain	0.53	1380	English	NA	10	3
A1D49NVJ3PJDJ2:3KXIR214I5OUY8TL8O3NYWG2CPB424	1454943264473	6	underage drinking	lhl	From what Edward said we may conclude that not all of the patrons drinking alcohol were underage.	0	1	0	imp	0.46	849	English	NA	10	3
A1D49NVJ3PJDJ2:3KXIR214I5OUY8TL8O3NYWG2CPB424	1454943265427	7	rotten tomatoes	hll	Gilbert is the cleaning lady.	1	0	0	test_false	0.56	952	English	NA	10	3
A1D49NVJ3PJDJ2:3KXIR214I5OUY8TL8O3NYWG2CPB424	1454943266443	8	rotten tomatoes	hll	Gilbert knows whether all of the tomatoes are rotten.	1	0	0	comp	0.46	1014	English	NA	10	3
A1D49NVJ3PJDJ2:3KXIR214I5OUY8TL8O3NYWG2CPB424	1454943267374	9	Martha's cookies	llh	Martha is allergic to chocolate.	0	0	1	test_uncertain	0.56	928	English	NA	10	3
A1D49NVJ3PJDJ2:3KXIR214I5OUY8TL8O3NYWG2CPB424	1454943271426	10	Martha's cookies	llh	From what Martha said we may conclude that Emily did not eat all of the cookies.	0	0	1	imp	0.69	4050	English	NA	10	3
A1D49NVJ3PJDJ2:3KXIR214I5OUY8TL8O3NYWG2CPB424	1454943272940	11	Swiss watch protoype testing	hlh	Torsten Steinmeier is not executing the tests on the prototype himself.	1	0	1	test_true	0.58	1513	English	NA	10	3
A1D49NVJ3PJDJ2:3KXIR214I5OUY8TL8O3NYWG2CPB424	1454943273993	12	Swiss watch protoype testing	hlh	The apprentice knows whether the prototype passed all of the tests scheduled for today.	1	0	1	comp	0.42	1051	English	NA	10	3
A1D49NVJ3PJDJ2:3KXIR214I5OUY8TL8O3NYWG2CPB424	1454943275194	13	M&M's in the hospital	lhh	Aunt Bethany gave Henry only candy.	0	1	1	test_false	0.59	1200	English	NA	10	3
A1D49NVJ3PJDJ2:3KXIR214I5OUY8TL8O3NYWG2CPB424	1454943276045	14	M&M's in the hospital	lhh	It is important for Henry's father to know whether Henry liked all of the M&Ms.	0	1	1	rel	0.43	849	English	NA	10	3
A1D49NVJ3PJDJ2:3KXIR214I5OUY8TL8O3NYWG2CPB424	1454943276876	15	hotel check	hhh	Harry has just inspected the San Diego hotel.	1	1	1	test_true	0.57	829	English	NA	10	3
A1D49NVJ3PJDJ2:3KXIR214I5OUY8TL8O3NYWG2CPB424	1454943277666	16	hotel check	hhh	All of the rooms had working air conditioning.	1	1	1	prior	0.43	788	English	NA	10	3
A1D81U3G36XESE:3NQL1CS15SGJT657L5B5GQHK4OFYV3	1454961389382	1	Swiss watch protoype testing	hlh	Testing of the prototype is finished.	1	0	1	test_false	0.09	54741	english	NA	8	1
A1D81U3G36XESE:3NQL1CS15SGJT657L5B5GQHK4OFYV3	1454961397753	2	Swiss watch protoype testing	hlh	From what the apprentice said we may conclude that the prototype did not pass all of the tests scheduled for today.	1	0	1	imp	0.87	8371	english	NA	8	1
A1D81U3G36XESE:3NQL1CS15SGJT657L5B5GQHK4OFYV3	1454961414710	3	underage drinking	lhl	The new laws on underage drinking are very strict.	0	1	0	test_true	1	16957	english	NA	8	1
A1D81U3G36XESE:3NQL1CS15SGJT657L5B5GQHK4OFYV3	1454961420796	4	underage drinking	lhl	It is important for the owner of the bar to know whether all of the patrons drinking alcohol were underage.	0	1	0	rel	1	6086	english	NA	8	1
A1D81U3G36XESE:3NQL1CS15SGJT657L5B5GQHK4OFYV3	1454961438137	5	M&M's in the hospital	lhh	Aunt Bethany gave Henry only candy.	0	1	1	test_false	0	17341	english	NA	8	1
A1D81U3G36XESE:3NQL1CS15SGJT657L5B5GQHK4OFYV3	1454961446830	6	M&M's in the hospital	lhh	Henry knows whether he liked all of the M&Ms.	0	1	1	comp	0.89	8693	english	NA	8	1
A1D81U3G36XESE:3NQL1CS15SGJT657L5B5GQHK4OFYV3	1454961631859	7	Star Trek expert quiz	hhh	Amber knows a lot about 'Star Trek'.	1	1	1	test_true	0.81	185029	english	NA	8	1
A1D81U3G36XESE:3NQL1CS15SGJT657L5B5GQHK4OFYV3	1454961635975	8	Star Trek expert quiz	hhh	From what George said we may conclude that Amber did not get all of the answers right.	1	1	1	imp	0.88	4116	english	NA	8	1
A1D81U3G36XESE:3NQL1CS15SGJT657L5B5GQHK4OFYV3	1454961873226	9	Martha's cookies	llh	Martha is allergic to chocolate.	0	0	1	test_uncertain	0.61	237246	english	NA	8	1
A1D81U3G36XESE:3NQL1CS15SGJT657L5B5GQHK4OFYV3	1454961880731	10	Martha's cookies	llh	Martha knows whether Emily ate all of the cookies.	0	0	1	comp	0.16	7505	english	NA	8	1
A1D81U3G36XESE:3NQL1CS15SGJT657L5B5GQHK4OFYV3	1454961906603	11	rotten tomatoes	hll	Gilbert is the cleaning lady.	1	0	0	test_false	0	25872	english	NA	8	1
A1D81U3G36XESE:3NQL1CS15SGJT657L5B5GQHK4OFYV3	1454961915036	12	rotten tomatoes	hll	From what Gilbert said we may conclude that not all of the tomatoes are rotten.	1	0	0	imp	0.8	8433	english	NA	8	1
A1D81U3G36XESE:3NQL1CS15SGJT657L5B5GQHK4OFYV3	1454961926829	13	stand-up comedy show	lll	Lennard is a salesman for karaoke machines.	0	0	0	test_false	0	11793	english	NA	8	1
A1D81U3G36XESE:3NQL1CS15SGJT657L5B5GQHK4OFYV3	1454961933795	14	stand-up comedy show	lll	All of the people who came yesterday also came to today's show.	0	0	0	prior	0.19	6966	english	NA	8	1
A1D81U3G36XESE:3NQL1CS15SGJT657L5B5GQHK4OFYV3	1454961955542	15	tail-donkey blindfold	hhl	Grace is unable to see where she has to pin the tails.	1	1	0	test_true	1	21747	english	NA	8	1
A1D81U3G36XESE:3NQL1CS15SGJT657L5B5GQHK4OFYV3	1454961960457	16	tail-donkey blindfold	hhl	From what Oliver said we may conclude that Grace did not put all of the tails in the right place.	1	1	0	imp	0.87	4915	english	NA	8	1
A1EBZG9HVPQ0TG:3P4MQ7TPPYK87KEQ6W6L73PCGOHBBX	1454997921897	1	gourmet desserts	lhh	Claire is the owner of the restaurant.	0	0	1	test_false	0	30498	english	NA	10	5
A1EBZG9HVPQ0TG:3P4MQ7TPPYK87KEQ6W6L73PCGOHBBX	1454997933611	2	gourmet desserts	lhh	It is important for Jeremy to know whether all of their desserts are fantastic.	0	0	1	rel	0	11714	english	NA	10	5
A1EBZG9HVPQ0TG:3P4MQ7TPPYK87KEQ6W6L73PCGOHBBX	1454997986094	3	rotten tomatoes	hll	Ted is fully dedicated to serving high quality food.	1	0	0	test_true	0.99	52483	english	NA	10	5
A1EBZG9HVPQ0TG:3P4MQ7TPPYK87KEQ6W6L73PCGOHBBX	1454997998508	4	rotten tomatoes	hll	From what Gilbert said we may conclude that not all of the tomatoes are rotten.	1	0	0	imp	0.86	12414	english	NA	10	5
A1EBZG9HVPQ0TG:3P4MQ7TPPYK87KEQ6W6L73PCGOHBBX	1454998070808	5	underage drinking	lhl	The new laws on underage drinking are very strict.	0	1	0	test_true	0.77	72300	english	NA	10	5
A1EBZG9HVPQ0TG:3P4MQ7TPPYK87KEQ6W6L73PCGOHBBX	1454998092164	6	underage drinking	lhl	Edward knows whether all of the patrons drinking alcohol were underage.	0	1	0	comp	0.17	21356	english	NA	10	5
A1EBZG9HVPQ0TG:3P4MQ7TPPYK87KEQ6W6L73PCGOHBBX	1454998127627	7	Harvard admission exams	hlh	Eleanor passed some of her exams.	1	0	1	test_uncertain	0.97	35463	english	NA	10	5
A1EBZG9HVPQ0TG:3P4MQ7TPPYK87KEQ6W6L73PCGOHBBX	1454998135524	8	Harvard admission exams	hlh	It is important for Ethan to know whether he passed all of the exams.	1	0	1	rel	0.7	7897	english	NA	10	5
A1EBZG9HVPQ0TG:3P4MQ7TPPYK87KEQ6W6L73PCGOHBBX	1454998145277	9	stand-up comedy show	lll	Lennard is popular in Seattle.	0	0	0	test_true	0.82	9753	english	NA	10	5
A1EBZG9HVPQ0TG:3P4MQ7TPPYK87KEQ6W6L73PCGOHBBX	1454998154715	10	stand-up comedy show	lll	Lennard knows whether all of the people who came yesterday also came to today's show.	0	0	0	comp	0.92	9438	english	NA	10	5
A1EBZG9HVPQ0TG:3P4MQ7TPPYK87KEQ6W6L73PCGOHBBX	1454998162326	11	hotel check	hhh	Harry has just inspected the San Diego hotel.	1	1	1	test_true	0.93	7610	english	NA	10	5
A1EBZG9HVPQ0TG:3P4MQ7TPPYK87KEQ6W6L73PCGOHBBX	1454998166213	12	hotel check	hhh	From what Harry said we may conclude that not all of the rooms had working air conditioning.	1	1	1	imp	0.89	3887	english	NA	10	5
A1EBZG9HVPQ0TG:3P4MQ7TPPYK87KEQ6W6L73PCGOHBBX	1454998170612	13	Martha's cookies	llh	Emily really enjoys chocolate.	0	0	1	test_true	0.89	4399	english	NA	10	5
A1EBZG9HVPQ0TG:3P4MQ7TPPYK87KEQ6W6L73PCGOHBBX	1454998173845	14	Martha's cookies	llh	Emily ate all of the cookies.	0	0	1	prior	0.93	3233	english	NA	10	5
A1EBZG9HVPQ0TG:3P4MQ7TPPYK87KEQ6W6L73PCGOHBBX	1454998177987	15	tail-donkey blindfold	hhl	Grace and Oliver are playing charades.	1	1	0	test_false	0.89	4142	english	NA	10	5
A1EBZG9HVPQ0TG:3P4MQ7TPPYK87KEQ6W6L73PCGOHBBX	1454998179610	16	tail-donkey blindfold	hhl	From what Oliver said we may conclude that Grace did not put all of the tails in the right place.	1	1	0	imp	0.87	1623	english	NA	10	5
A1EQIKZRSGNNP:3ZY8KE4ISKBAK4ELUVUB34EI5GXVQY	1454999215074	1	Martha's cookies	llh	Martha had dinner with a friend.	0	0	1	test_false	0	23627	English	NA	9	0
A1EQIKZRSGNNP:3ZY8KE4ISKBAK4ELUVUB34EI5GXVQY	1454999225200	2	Martha's cookies	llh	From what Martha said we may conclude that Emily did not eat all of the cookies.	0	0	1	imp	1	10124	English	NA	9	0
A1EQIKZRSGNNP:3ZY8KE4ISKBAK4ELUVUB34EI5GXVQY	1454999253522	3	emails from a broken laptop	lll	Kate's laptop has a problem with the wifi connection.	0	0	0	test_uncertain	0.22	28320	English	NA	9	0
A1EQIKZRSGNNP:3ZY8KE4ISKBAK4ELUVUB34EI5GXVQY	1454999261979	4	emails from a broken laptop	lll	Joshua knows whether he received all of Kate's emails.	0	0	0	comp	1	8457	English	NA	9	0
A1EQIKZRSGNNP:3ZY8KE4ISKBAK4ELUVUB34EI5GXVQY	1454999289579	5	tail-donkey blindfold	hhl	Grace and Oliver are playing charades.	1	1	0	test_false	0	27599	English	NA	9	0
A1EQIKZRSGNNP:3ZY8KE4ISKBAK4ELUVUB34EI5GXVQY	1454999299242	6	tail-donkey blindfold	hhl	From what Oliver said we may conclude that Grace did not put all of the tails in the right place.	1	1	0	imp	1	9661	English	NA	9	0
A1EQIKZRSGNNP:3ZY8KE4ISKBAK4ELUVUB34EI5GXVQY	1454999320763	7	schizophrenia talk	hll	Jacob works as a psychologist.	1	0	0	test_true	0.93	21520	English	NA	9	0
A1EQIKZRSGNNP:3ZY8KE4ISKBAK4ELUVUB34EI5GXVQY	1454999331021	8	schizophrenia talk	hll	All of the people enjoyed Lucy's talk.	1	0	0	prior	0.26	10257	English	NA	9	0
A1EQIKZRSGNNP:3ZY8KE4ISKBAK4ELUVUB34EI5GXVQY	1454999373955	9	hotel check	hhh	Mr Jaynes is the manager of the San Diego hotel.	1	1	1	test_false	0.51	42933	English	NA	9	0
A1EQIKZRSGNNP:3ZY8KE4ISKBAK4ELUVUB34EI5GXVQY	1454999380688	10	hotel check	hhh	It is important for Mr Jaynes to know whether all of the rooms had working air conditioning.	1	1	1	rel	0.87	6731	English	NA	9	0
A1EQIKZRSGNNP:3ZY8KE4ISKBAK4ELUVUB34EI5GXVQY	1454999404185	11	underage drinking	lhl	There were underage patrons drinking whiskey.	0	1	0	test_uncertain	0.16	23496	English	NA	9	0
A1EQIKZRSGNNP:3ZY8KE4ISKBAK4ELUVUB34EI5GXVQY	1454999413203	12	underage drinking	lhl	From what Edward said we may conclude that not all of the patrons drinking alcohol were underage.	0	1	0	imp	1	9016	English	NA	9	0
A1EQIKZRSGNNP:3ZY8KE4ISKBAK4ELUVUB34EI5GXVQY	1454999439287	13	gourmet desserts	lhh	Jeremy is madly in love with Claire.	0	0	1	test_uncertain	0.09	26083	English	NA	9	0
A1EQIKZRSGNNP:3ZY8KE4ISKBAK4ELUVUB34EI5GXVQY	1454999450253	14	gourmet desserts	lhh	It is important for Jeremy to know whether all of their desserts are fantastic.	0	0	1	rel	0.25	10965	English	NA	9	0
A1EQIKZRSGNNP:3ZY8KE4ISKBAK4ELUVUB34EI5GXVQY	1454999549202	15	Swiss watch protoype testing	hlh	Torsten Steinmeier is not executing the tests on the prototype himself.	1	0	1	test_true	0	98948	English	NA	9	0
A1EQIKZRSGNNP:3ZY8KE4ISKBAK4ELUVUB34EI5GXVQY	1454999560417	16	Swiss watch protoype testing	hlh	From what the apprentice said we may conclude that the prototype did not pass all of the tests scheduled for today.	1	0	1	imp	0.9	11214	English	NA	9	0
A1FP3SH704X01V:3MH9DQ757XKJU0V7M9FUD48XLMGGU0	1454998280074	1	Martha's cookies	llh	Emily really enjoys chocolate.	0	0	1	test_true	1	45037	english	n/a	8	4
A1FP3SH704X01V:3MH9DQ757XKJU0V7M9FUD48XLMGGU0	1454998288819	2	Martha's cookies	llh	Martha knows whether Emily ate all of the cookies.	0	0	1	comp	0.96	8744	english	n/a	8	4
A1FP3SH704X01V:3MH9DQ757XKJU0V7M9FUD48XLMGGU0	1454998343219	3	hotel check	hhh	Harry has just inspected the San Diego hotel.	1	1	1	test_true	0.92	54396	english	n/a	8	4
A1FP3SH704X01V:3MH9DQ757XKJU0V7M9FUD48XLMGGU0	1454998351028	4	hotel check	hhh	From what Harry said we may conclude that not all of the rooms had working air conditioning.	1	1	1	imp	0.96	7807	english	n/a	8	4
A1FP3SH704X01V:3MH9DQ757XKJU0V7M9FUD48XLMGGU0	1454998365709	5	Harvard admission exams	hlh	Eleanor passed some of her exams.	1	0	1	test_uncertain	1	14678	english	n/a	8	4
A1FP3SH704X01V:3MH9DQ757XKJU0V7M9FUD48XLMGGU0	1454998370398	6	Harvard admission exams	hlh	Eleanor knows whether Ethan passed all of the exams.	1	0	1	comp	0.23	4688	english	n/a	8	4
A1FP3SH704X01V:3MH9DQ757XKJU0V7M9FUD48XLMGGU0	1454998384238	7	schizophrenia talk	hll	Lucy is really nervous about the talk. 	1	0	0	test_uncertain	0.77	13838	english	n/a	8	4
A1FP3SH704X01V:3MH9DQ757XKJU0V7M9FUD48XLMGGU0	1454998393279	8	schizophrenia talk	hll	From what Jacob said we may conclude that not all of the people enjoyed Lucy's talk.	1	0	0	imp	1	9039	english	n/a	8	4
A1FP3SH704X01V:3MH9DQ757XKJU0V7M9FUD48XLMGGU0	1454998479837	9	stand-up comedy show	lll	Lennard is making plans for his early retirement.	0	0	0	test_uncertain	0	86555	english	n/a	8	4
A1FP3SH704X01V:3MH9DQ757XKJU0V7M9FUD48XLMGGU0	1454998487887	10	stand-up comedy show	lll	It is important for Lennard's wife to know whether all of the people who came yesterday also came to today's show.	0	0	0	rel	0.69	8049	english	n/a	8	4
A1FP3SH704X01V:3MH9DQ757XKJU0V7M9FUD48XLMGGU0	1454998536380	11	gift unwrapping	lhh	There were twelve children at the party.	0	1	1	test_uncertain	0.08	48492	english	n/a	8	4
A1FP3SH704X01V:3MH9DQ757XKJU0V7M9FUD48XLMGGU0	1454998545221	12	gift unwrapping	lhh	Leonard unwrapped all of the presents right away.	0	1	1	prior	0.61	8839	english	n/a	8	4
A1FP3SH704X01V:3MH9DQ757XKJU0V7M9FUD48XLMGGU0	1454998558239	13	underage drinking	lhl	The new laws on underage drinking are very strict.	0	1	0	test_true	0.96	13017	english	n/a	8	4
A1FP3SH704X01V:3MH9DQ757XKJU0V7M9FUD48XLMGGU0	1454998563512	14	underage drinking	lhl	From what Edward said we may conclude that not all of the patrons drinking alcohol were underage.	0	1	0	imp	1	5272	english	n/a	8	4
A1FP3SH704X01V:3MH9DQ757XKJU0V7M9FUD48XLMGGU0	1454998575609	15	tail-donkey blindfold	hhl	Grace and Oliver live in the same apartment.	1	1	0	test_uncertain	0.23	12094	english	n/a	8	4
A1FP3SH704X01V:3MH9DQ757XKJU0V7M9FUD48XLMGGU0	1454998579953	16	tail-donkey blindfold	hhl	It is important for Grace to know whether she put all of the tails in the right place.	1	1	0	rel	0.9	4343	english	n/a	8	4
A1FYFBIFYWTMJS:38BQUHLA9X8O957W1Q1GR305ZL4OM1	1454958704099	1	Martha's cookies	llh	Martha is allergic to chocolate.	0	0	1	test_uncertain	0.15	25023	English	NA	10	5
A1FYFBIFYWTMJS:38BQUHLA9X8O957W1Q1GR305ZL4OM1	1454958718106	2	Martha's cookies	llh	From what Martha said we may conclude that Emily did not eat all of the cookies.	0	0	1	imp	1	14006	English	NA	10	5
A1FYFBIFYWTMJS:38BQUHLA9X8O957W1Q1GR305ZL4OM1	1454958736586	3	Harvard admission exams	hlh	Eleanor passed some of her exams.	1	0	1	test_uncertain	0.5	18479	English	NA	10	5
A1FYFBIFYWTMJS:38BQUHLA9X8O957W1Q1GR305ZL4OM1	1454958745778	4	Harvard admission exams	hlh	It is important for Ethan to know whether he passed all of the exams.	1	0	1	rel	1	9191	English	NA	10	5
A1FYFBIFYWTMJS:38BQUHLA9X8O957W1Q1GR305ZL4OM1	1454958754826	5	rotten tomatoes	hll	Gilbert is a former drug addict.	1	0	0	test_uncertain	0.16	9047	English	NA	10	5
A1FYFBIFYWTMJS:38BQUHLA9X8O957W1Q1GR305ZL4OM1	1454958760298	6	rotten tomatoes	hll	Gilbert knows whether all of the tomatoes are rotten.	1	0	0	comp	0	5471	English	NA	10	5
A1FYFBIFYWTMJS:38BQUHLA9X8O957W1Q1GR305ZL4OM1	1454958772130	7	van Gogh exhibition	lhl	The mayor is not interested in art exhibitions.	0	1	0	test_uncertain	0.1	11831	English	NA	10	5
A1FYFBIFYWTMJS:38BQUHLA9X8O957W1Q1GR305ZL4OM1	1454958778594	8	van Gogh exhibition	lhl	All of van Gogh's paintings are among the most valuable paintings in the world.	0	1	0	prior	1	6462	English	NA	10	5
A1FYFBIFYWTMJS:38BQUHLA9X8O957W1Q1GR305ZL4OM1	1454958788890	9	M&M's in the hospital	lhh	Aunt Bethany gave Henry only candy.	0	1	1	test_false	0	10295	English	NA	10	5
A1FYFBIFYWTMJS:38BQUHLA9X8O957W1Q1GR305ZL4OM1	1454958797834	10	M&M's in the hospital	lhh	Henry knows whether he liked all of the M&Ms.	0	1	1	comp	1	8943	English	NA	10	5
A1FYFBIFYWTMJS:38BQUHLA9X8O957W1Q1GR305ZL4OM1	1454958812762	11	hotel check	hhh	Harry has just inspected the San Diego hotel.	1	1	1	test_true	0.92	14927	English	NA	10	5
A1FYFBIFYWTMJS:38BQUHLA9X8O957W1Q1GR305ZL4OM1	1454958823458	12	hotel check	hhh	All of the rooms had working air conditioning.	1	1	1	prior	0.74	10695	English	NA	10	5
A1FYFBIFYWTMJS:38BQUHLA9X8O957W1Q1GR305ZL4OM1	1454958840419	13	NBA experts	hhl	Greg Jones' team is in the playoffs of this year's NBA season.	1	1	0	test_true	0.98	16960	English	NA	10	5
A1FYFBIFYWTMJS:38BQUHLA9X8O957W1Q1GR305ZL4OM1	1454958852402	14	NBA experts	hhl	It is important for Richard Trellis to know whether Greg Jones secured victory for his team during the last seconds of all of the decisive playoff matches.	1	1	0	rel	1	11982	English	NA	10	5
A1FYFBIFYWTMJS:38BQUHLA9X8O957W1Q1GR305ZL4OM1	1454958862658	15	stand-up comedy show	lll	Lennard is making plans for his early retirement.	0	0	0	test_uncertain	0.5	10255	English	NA	10	5
